timestamp;gyro-alpha;gyro-beta;gyro-gamma;accel-x;accel-y;accel-z
1489512413114;-125.921875;13.15625;49.25;0.88525390625;-0.035400390625;-0.2900390625
1489512413254;-125.921875;13.15625;49.25;0.88525390625;-0.035400390625;-0.2900390625
1489512413394;-125.921875;13.15625;49.25;0.88525390625;-0.035400390625;-0.2900390625
1489512413534;11.5859375;-4.1171875;-21.546875;0.740966796875;0.220703125;-0.2158203125
1489512413674;11.5859375;-4.1171875;-21.546875;0.740966796875;0.220703125;-0.2158203125
1489512413814;11.5859375;-4.1171875;-21.546875;0.740966796875;0.220703125;-0.2158203125
1489512413954;11.5859375;-4.1171875;-21.546875;0.740966796875;0.220703125;-0.2158203125
1489512414094;11.5859375;-4.1171875;-21.546875;0.740966796875;0.220703125;-0.2158203125
1489512414234;11.5859375;-4.1171875;-21.546875;0.740966796875;0.220703125;-0.2158203125
1489512414444;11.5859375;-4.1171875;-21.546875;0.740966796875;0.220703125;-0.2158203125
1489512414584;86.0859375;-7.453125;-60.6328125;1.01391601562;0.22412109375;-0.341552734375
1489512414724;86.0859375;-7.453125;-60.6328125;1.01391601562;0.22412109375;-0.341552734375
1489512414864;86.0859375;-7.453125;-60.6328125;1.01391601562;0.22412109375;-0.341552734375
1489512415004;86.0859375;-7.453125;-60.6328125;1.01391601562;0.22412109375;-0.341552734375
1489512415144;86.0859375;-7.453125;-60.6328125;1.01391601562;0.22412109375;-0.341552734375
1489512415284;86.0859375;-7.453125;-60.6328125;1.01391601562;0.22412109375;-0.341552734375
1489512415424;86.0859375;-7.453125;-60.6328125;1.01391601562;0.22412109375;-0.341552734375
1489512415564;-10.40625;10.46875;22.34375;0.932373046875;0.132080078125;-0.389892578125
1489512415704;-10.40625;10.46875;22.34375;0.932373046875;0.132080078125;-0.389892578125
1489512415844;-10.40625;10.46875;22.34375;0.932373046875;0.132080078125;-0.389892578125
1489512415984;-10.40625;10.46875;22.34375;0.932373046875;0.132080078125;-0.389892578125
1489512416124;-10.40625;10.46875;22.34375;0.932373046875;0.132080078125;-0.389892578125
1489512416264;-10.40625;10.46875;22.34375;0.932373046875;0.132080078125;-0.389892578125
1489512416404;-10.40625;10.46875;22.34375;0.932373046875;0.132080078125;-0.389892578125
1489512416544;-19.296875;57.7421875;176.953125;1.4873046875;0.029541015625;-0.385009765625
1489512416754;-19.296875;57.7421875;176.953125;1.4873046875;0.029541015625;-0.385009765625
1489512416894;-19.296875;57.7421875;176.953125;1.4873046875;0.029541015625;-0.385009765625
1489512417034;-19.296875;57.7421875;176.953125;1.4873046875;0.029541015625;-0.385009765625
1489512417174;-19.296875;57.7421875;176.953125;1.4873046875;0.029541015625;-0.385009765625
1489512417314;-19.296875;57.7421875;176.953125;1.4873046875;0.029541015625;-0.385009765625
1489512417454;-19.296875;57.7421875;176.953125;1.4873046875;0.029541015625;-0.385009765625
1489512417594;-32.8515625;-23.609375;-83.1953125;0.727294921875;0.2109375;-0.136474609375
1489512417734;-32.8515625;-23.609375;-83.1953125;0.727294921875;0.2109375;-0.136474609375
1489512417874;-32.8515625;-23.609375;-83.1953125;0.727294921875;0.2109375;-0.136474609375
1489512418014;-32.8515625;-23.609375;-83.1953125;0.727294921875;0.2109375;-0.136474609375
1489512418154;-32.8515625;-23.609375;-83.1953125;0.727294921875;0.2109375;-0.136474609375
1489512418294;-32.8515625;-23.609375;-83.1953125;0.727294921875;0.2109375;-0.136474609375
1489512418434;-32.8515625;-23.609375;-83.1953125;0.727294921875;0.2109375;-0.136474609375
1489512418574;10.90625;4.71875;-24.609375;1.29858398438;0.090576171875;-0.39990234375
1489512418714;10.90625;4.71875;-24.609375;1.29858398438;0.090576171875;-0.39990234375
1489512418854;10.90625;4.71875;-24.609375;1.29858398438;0.090576171875;-0.39990234375
1489512418994;10.90625;4.71875;-24.609375;1.29858398438;0.090576171875;-0.39990234375
1489512419134;10.90625;4.71875;-24.609375;1.29858398438;0.090576171875;-0.39990234375
1489512419274;10.90625;4.71875;-24.609375;1.29858398438;0.090576171875;-0.39990234375
1489512419484;10.90625;4.71875;-24.609375;1.29858398438;0.090576171875;-0.39990234375
1489512419624;-28.5;2.5625;14.609375;0.89892578125;0.06640625;-0.383544921875
1489512419764;-28.5;2.5625;14.609375;0.89892578125;0.06640625;-0.383544921875
1489512419904;-28.5;2.5625;14.609375;0.89892578125;0.06640625;-0.383544921875
1489512420044;-28.5;2.5625;14.609375;0.89892578125;0.06640625;-0.383544921875
1489512420184;-28.5;2.5625;14.609375;0.89892578125;0.06640625;-0.383544921875
1489512420324;-28.5;2.5625;14.609375;0.89892578125;0.06640625;-0.383544921875
1489512420464;-8.5;-22.8671875;-108.1328125;1.0029296875;0.175537109375;-0.1767578125
1489512420604;-8.5;-22.8671875;-108.1328125;1.0029296875;0.175537109375;-0.1767578125
1489512420744;-8.5;-22.8671875;-108.1328125;1.0029296875;0.175537109375;-0.1767578125
1489512420884;-8.5;-22.8671875;-108.1328125;1.0029296875;0.175537109375;-0.1767578125
1489512421024;-8.5;-22.8671875;-108.1328125;1.0029296875;0.175537109375;-0.1767578125
1489512421164;-8.5;-22.8671875;-108.1328125;1.0029296875;0.175537109375;-0.1767578125
1489512421304;-8.5;-22.8671875;-108.1328125;1.0029296875;0.175537109375;-0.1767578125
1489512421444;-8.5;-22.8671875;-108.1328125;1.0029296875;0.175537109375;-0.1767578125
1489512421585;17.796875;7.09375;-27.953125;1.06518554688;-0.002685546875;-0.389404296875
1489512421724;17.796875;7.09375;-27.953125;1.06518554688;-0.002685546875;-0.389404296875
1489512421864;17.796875;7.09375;-27.953125;1.06518554688;-0.002685546875;-0.389404296875
1489512422004;17.796875;7.09375;-27.953125;1.06518554688;-0.002685546875;-0.389404296875
1489512422144;17.796875;7.09375;-27.953125;1.06518554688;-0.002685546875;-0.389404296875
1489512422284;17.796875;7.09375;-27.953125;1.06518554688;-0.002685546875;-0.389404296875
1489512422424;17.796875;7.09375;-27.953125;1.06518554688;-0.002685546875;-0.389404296875
1489512422565;2.59375;28.4140625;44.953125;1.01147460938;0.064453125;-0.32666015625
1489512422704;2.59375;28.4140625;44.953125;1.01147460938;0.064453125;-0.32666015625
1489512422844;2.59375;28.4140625;44.953125;1.01147460938;0.064453125;-0.32666015625
1489512422984;2.59375;28.4140625;44.953125;1.01147460938;0.064453125;-0.32666015625
1489512423124;2.59375;28.4140625;44.953125;1.01147460938;0.064453125;-0.32666015625
1489512423264;2.59375;28.4140625;44.953125;1.01147460938;0.064453125;-0.32666015625
1489512423404;2.59375;28.4140625;44.953125;1.01147460938;0.064453125;-0.32666015625
1489512423544;-3.765625;-13.7109375;-53.8515625;0.7939453125;0.133544921875;-0.187744140625
1489512423684;-3.765625;-13.7109375;-53.8515625;0.7939453125;0.133544921875;-0.187744140625
1489512423824;-3.765625;-13.7109375;-53.8515625;0.7939453125;0.133544921875;-0.187744140625
1489512423964;-3.765625;-13.7109375;-53.8515625;0.7939453125;0.133544921875;-0.187744140625
1489512424174;-3.765625;-13.7109375;-53.8515625;0.7939453125;0.133544921875;-0.187744140625
1489512424314;-3.765625;-13.7109375;-53.8515625;0.7939453125;0.133544921875;-0.187744140625
1489512424454;-3.765625;-13.7109375;-53.8515625;0.7939453125;0.133544921875;-0.187744140625
1489512424594;-1.234375;6.0546875;-9.0625;1.40844726562;-0.00048828125;-0.441162109375
1489512424734;-1.234375;6.0546875;-9.0625;1.40844726562;-0.00048828125;-0.441162109375
1489512424874;-1.234375;6.0546875;-9.0625;1.40844726562;-0.00048828125;-0.441162109375
1489512425014;-1.234375;6.0546875;-9.0625;1.40844726562;-0.00048828125;-0.441162109375
1489512425154;-1.234375;6.0546875;-9.0625;1.40844726562;-0.00048828125;-0.441162109375
1489512425294;-1.234375;6.0546875;-9.0625;1.40844726562;-0.00048828125;-0.441162109375
1489512425504;-1.234375;6.0546875;-9.0625;1.40844726562;-0.00048828125;-0.441162109375
1489512425644;-48.171875;8.3515625;17.140625;0.768310546875;0.210693359375;-0.412841796875
1489512425785;-48.171875;8.3515625;17.140625;0.768310546875;0.210693359375;-0.412841796875
1489512425994;-48.171875;8.3515625;17.140625;0.768310546875;0.210693359375;-0.412841796875
1489512426135;-48.171875;8.3515625;17.140625;0.768310546875;0.210693359375;-0.412841796875
1489512426274;-48.171875;8.3515625;17.140625;0.768310546875;0.210693359375;-0.412841796875
1489512426414;-48.171875;8.3515625;17.140625;0.768310546875;0.210693359375;-0.412841796875
1489512426554;30.2890625;5.59375;-60.59375;1.0234375;0.177978515625;-0.281982421875
1489512426694;30.2890625;5.59375;-60.59375;1.0234375;0.177978515625;-0.281982421875
1489512426834;30.2890625;5.59375;-60.59375;1.0234375;0.177978515625;-0.281982421875
1489512426974;30.2890625;5.59375;-60.59375;1.0234375;0.177978515625;-0.281982421875
1489512427114;30.2890625;5.59375;-60.59375;1.0234375;0.177978515625;-0.281982421875
1489512427255;30.2890625;5.59375;-60.59375;1.0234375;0.177978515625;-0.281982421875
1489512427394;30.2890625;5.59375;-60.59375;1.0234375;0.177978515625;-0.281982421875
1489512427534;106.859375;-34.2109375;-40.15625;1.04248046875;0.14306640625;-0.31689453125
1489512427674;106.859375;-34.2109375;-40.15625;1.04248046875;0.14306640625;-0.31689453125
1489512427815;106.859375;-34.2109375;-40.15625;1.04248046875;0.14306640625;-0.31689453125
1489512427954;106.859375;-34.2109375;-40.15625;1.04248046875;0.14306640625;-0.31689453125
1489512428094;106.859375;-34.2109375;-40.15625;1.04248046875;0.14306640625;-0.31689453125
1489512428234;106.859375;-34.2109375;-40.15625;1.04248046875;0.14306640625;-0.31689453125
1489512428374;106.859375;-34.2109375;-40.15625;1.04248046875;0.14306640625;-0.31689453125
1489512428515;19.15625;3.7109375;0.4453125;0.747314453125;0.126708984375;-0.360595703125
1489512428654;19.15625;3.7109375;0.4453125;0.747314453125;0.126708984375;-0.360595703125
1489512428794;19.15625;3.7109375;0.4453125;0.747314453125;0.126708984375;-0.360595703125
1489512428934;19.15625;3.7109375;0.4453125;0.747314453125;0.126708984375;-0.360595703125
1489512429074;19.15625;3.7109375;0.4453125;0.747314453125;0.126708984375;-0.360595703125
1489512429214;19.15625;3.7109375;0.4453125;0.747314453125;0.126708984375;-0.360595703125
1489512429354;19.15625;3.7109375;0.4453125;0.747314453125;0.126708984375;-0.360595703125
1489512429494;51.7265625;29.8359375;105.984375;1.19555664062;0.103759765625;-0.335693359375
1489512429634;51.7265625;29.8359375;105.984375;1.19555664062;0.103759765625;-0.335693359375
1489512429774;51.7265625;29.8359375;105.984375;1.19555664062;0.103759765625;-0.335693359375
1489512429914;51.7265625;29.8359375;105.984375;1.19555664062;0.103759765625;-0.335693359375
1489512430124;51.7265625;29.8359375;105.984375;1.19555664062;0.103759765625;-0.335693359375
1489512430264;51.7265625;29.8359375;105.984375;1.19555664062;0.103759765625;-0.335693359375
1489512430404;51.7265625;29.8359375;105.984375;1.19555664062;0.103759765625;-0.335693359375
1489512430544;-1.5625;-41.5625;-82.4765625;1.02905273438;0.109130859375;-0.203369140625
1489512430684;-1.5625;-41.5625;-82.4765625;1.02905273438;0.109130859375;-0.203369140625
1489512430824;-1.5625;-41.5625;-82.4765625;1.02905273438;0.109130859375;-0.203369140625
1489512430964;-1.5625;-41.5625;-82.4765625;1.02905273438;0.109130859375;-0.203369140625
1489512431104;-1.5625;-41.5625;-82.4765625;1.02905273438;0.109130859375;-0.203369140625
1489512431314;-1.5625;-41.5625;-82.4765625;1.02905273438;0.109130859375;-0.203369140625
1489512431454;-1.5625;-41.5625;-82.4765625;1.02905273438;0.109130859375;-0.203369140625
1489512431594;-29.96875;-5.4140625;-31.5078125;1.02685546875;0.06494140625;-0.322509765625
1489512431734;-29.96875;-5.4140625;-31.5078125;1.02685546875;0.06494140625;-0.322509765625
1489512431874;-29.96875;-5.4140625;-31.5078125;1.02685546875;0.06494140625;-0.322509765625
1489512432014;-29.96875;-5.4140625;-31.5078125;1.02685546875;0.06494140625;-0.322509765625
1489512432154;-29.96875;-5.4140625;-31.5078125;1.02685546875;0.06494140625;-0.322509765625
1489512432294;-29.96875;-5.4140625;-31.5078125;1.02685546875;0.06494140625;-0.322509765625
1489512432434;-29.96875;-5.4140625;-31.5078125;1.02685546875;0.06494140625;-0.322509765625
1489512432574;-11.9453125;47.1015625;80.9921875;1.12133789062;0.156982421875;-0.416015625
1489512432714;-11.9453125;47.1015625;80.9921875;1.12133789062;0.156982421875;-0.416015625
1489512432994;-11.9453125;47.1015625;80.9921875;1.12133789062;0.156982421875;-0.416015625
1489512433134;-11.9453125;47.1015625;80.9921875;1.12133789062;0.156982421875;-0.416015625
1489512433274;-11.9453125;47.1015625;80.9921875;1.12133789062;0.156982421875;-0.416015625
1489512433414;-11.9453125;47.1015625;80.9921875;1.12133789062;0.156982421875;-0.416015625
1489512433554;16.625;-5.1640625;-5.515625;0.706298828125;0.13720703125;-0.2294921875
1489512433694;16.625;-5.1640625;-5.515625;0.706298828125;0.13720703125;-0.2294921875
1489512433834;16.625;-5.1640625;-5.515625;0.706298828125;0.13720703125;-0.2294921875
1489512433974;16.625;-5.1640625;-5.515625;0.706298828125;0.13720703125;-0.2294921875
1489512434114;16.625;-5.1640625;-5.515625;0.706298828125;0.13720703125;-0.2294921875
1489512434254;16.625;-5.1640625;-5.515625;0.706298828125;0.13720703125;-0.2294921875
1489512434394;16.625;-5.1640625;-5.515625;0.706298828125;0.13720703125;-0.2294921875
1489512434535;26.59375;6.21875;-6.25;1.29467773438;0.01953125;-0.467529296875
1489512434674;26.59375;6.21875;-6.25;1.29467773438;0.01953125;-0.467529296875
1489512434814;26.59375;6.21875;-6.25;1.29467773438;0.01953125;-0.467529296875
1489512434954;26.59375;6.21875;-6.25;1.29467773438;0.01953125;-0.467529296875
1489512435094;26.59375;6.21875;-6.25;1.29467773438;0.01953125;-0.467529296875
1489512435234;26.59375;6.21875;-6.25;1.29467773438;0.01953125;-0.467529296875
1489512435374;26.59375;6.21875;-6.25;1.29467773438;0.01953125;-0.467529296875
1489512435514;-52.5234375;9.5703125;12.390625;0.6376953125;0.21240234375;-0.343017578125
1489512435654;-52.5234375;9.5703125;12.390625;0.6376953125;0.21240234375;-0.343017578125
1489512435794;-52.5234375;9.5703125;12.390625;0.6376953125;0.21240234375;-0.343017578125
1489512435934;-52.5234375;9.5703125;12.390625;0.6376953125;0.21240234375;-0.343017578125
1489512436074;-52.5234375;9.5703125;12.390625;0.6376953125;0.21240234375;-0.343017578125
1489512436214;-52.5234375;9.5703125;12.390625;0.6376953125;0.21240234375;-0.343017578125
1489512436354;-52.5234375;9.5703125;12.390625;0.6376953125;0.21240234375;-0.343017578125
1489512436494;29.1640625;46.765625;105.953125;1.3369140625;0.0546875;-0.333251953125
1489512436634;29.1640625;46.765625;105.953125;1.3369140625;0.0546875;-0.333251953125
1489512436774;29.1640625;46.765625;105.953125;1.3369140625;0.0546875;-0.333251953125
1489512436915;29.1640625;46.765625;105.953125;1.3369140625;0.0546875;-0.333251953125
1489512437124;29.1640625;46.765625;105.953125;1.3369140625;0.0546875;-0.333251953125
1489512437264;29.1640625;46.765625;105.953125;1.3369140625;0.0546875;-0.333251953125
1489512437404;29.1640625;46.765625;105.953125;1.3369140625;0.0546875;-0.333251953125
1489512437544;20.15625;8.7109375;-23.8984375;1.07446289062;0.017333984375;-0.103271484375
1489512437684;20.15625;8.7109375;-23.8984375;1.07446289062;0.017333984375;-0.103271484375
1489512437824;20.15625;8.7109375;-23.8984375;1.07446289062;0.017333984375;-0.103271484375
1489512437964;20.15625;8.7109375;-23.8984375;1.07446289062;0.017333984375;-0.103271484375
1489512438104;20.15625;8.7109375;-23.8984375;1.07446289062;0.017333984375;-0.103271484375
1489512438244;20.15625;8.7109375;-23.8984375;1.07446289062;0.017333984375;-0.103271484375
1489512438384;20.15625;8.7109375;-23.8984375;1.07446289062;0.017333984375;-0.103271484375
1489512438524;-5.296875;-20.0625;-72.2109375;0.765380859375;-0.160400390625;-0.230712890625
1489512438664;-5.296875;-20.0625;-72.2109375;0.765380859375;-0.160400390625;-0.230712890625
1489512438804;-5.296875;-20.0625;-72.2109375;0.765380859375;-0.160400390625;-0.230712890625
1489512438944;-5.296875;-20.0625;-72.2109375;0.765380859375;-0.160400390625;-0.230712890625
1489512439084;-5.296875;-20.0625;-72.2109375;0.765380859375;-0.160400390625;-0.230712890625
1489512439224;-5.296875;-20.0625;-72.2109375;0.765380859375;-0.160400390625;-0.230712890625
1489512439364;-5.296875;-20.0625;-72.2109375;0.765380859375;-0.160400390625;-0.230712890625
1489512439504;-25.9296875;-41.5625;-88.2421875;1.048828125;0.058837890625;-0.21484375
1489512439644;-25.9296875;-41.5625;-88.2421875;1.048828125;0.058837890625;-0.21484375
1489512439784;-25.9296875;-41.5625;-88.2421875;1.048828125;0.058837890625;-0.21484375
1489512439924;-25.9296875;-41.5625;-88.2421875;1.048828125;0.058837890625;-0.21484375
1489512440064;-25.9296875;-41.5625;-88.2421875;1.048828125;0.058837890625;-0.21484375
1489512440204;-25.9296875;-41.5625;-88.2421875;1.048828125;0.058837890625;-0.21484375
1489512440414;-25.9296875;-41.5625;-88.2421875;1.048828125;0.058837890625;-0.21484375
1489512440554;71.1171875;-8.4296875;-50.765625;0.958740234375;0.18994140625;-0.341064453125
1489512440694;71.1171875;-8.4296875;-50.765625;0.958740234375;0.18994140625;-0.341064453125
1489512440834;71.1171875;-8.4296875;-50.765625;0.958740234375;0.18994140625;-0.341064453125
1489512440974;71.1171875;-8.4296875;-50.765625;0.958740234375;0.18994140625;-0.341064453125
1489512441114;71.1171875;-8.4296875;-50.765625;0.958740234375;0.18994140625;-0.341064453125
1489512441254;71.1171875;-8.4296875;-50.765625;0.958740234375;0.18994140625;-0.341064453125
1489512441464;71.1171875;-8.4296875;-50.765625;0.958740234375;0.18994140625;-0.341064453125
1489512441604;-16.7734375;3.2890625;-5.328125;0.76171875;0.11279296875;-0.45166015625
1489512441744;-16.7734375;3.2890625;-5.328125;0.76171875;0.11279296875;-0.45166015625
1489512441884;-16.7734375;3.2890625;-5.328125;0.76171875;0.11279296875;-0.45166015625
1489512442024;-16.7734375;3.2890625;-5.328125;0.76171875;0.11279296875;-0.45166015625
1489512442164;-16.7734375;3.2890625;-5.328125;0.76171875;0.11279296875;-0.45166015625
1489512442304;-16.7734375;3.2890625;-5.328125;0.76171875;0.11279296875;-0.45166015625
1489512442444;-16.7734375;3.2890625;-5.328125;0.76171875;0.11279296875;-0.45166015625
1489512442584;7.9140625;13.359375;-7.7265625;0.95654296875;0.11328125;-0.30078125
1489512442724;7.9140625;13.359375;-7.7265625;0.95654296875;0.11328125;-0.30078125
1489512442864;7.9140625;13.359375;-7.7265625;0.95654296875;0.11328125;-0.30078125
1489512443004;7.9140625;13.359375;-7.7265625;0.95654296875;0.11328125;-0.30078125
