timestamp;gyro-alpha;gyro-beta;gyro-gamma;accel-x;accel-y;accel-z
1489432305896;0.171875;-1.7265625;5.1171875;0.026123046875;0.249267578125;-0.9931640625
1489432306036;0.171875;-1.7265625;5.1171875;0.026123046875;0.249267578125;-0.9931640625
1489432306176;0.46875;0.671875;4.796875;-0.00927734375;0.247802734375;-0.982177734375
1489432306316;0.46875;0.671875;4.796875;-0.00927734375;0.247802734375;-0.982177734375
1489432306456;0.46875;0.671875;4.796875;-0.00927734375;0.247802734375;-0.982177734375
1489432306596;0.46875;0.671875;4.796875;-0.00927734375;0.247802734375;-0.982177734375
1489432306736;0.46875;0.671875;4.796875;-0.00927734375;0.247802734375;-0.982177734375
1489432306876;0.46875;0.671875;4.796875;-0.00927734375;0.247802734375;-0.982177734375
1489432307016;0.46875;0.671875;4.796875;-0.00927734375;0.247802734375;-0.982177734375
1489432307162;2.140625;-1.21875;2.984375;-0.123291015625;0.247314453125;-0.969482421875
1489432307296;2.140625;-1.21875;2.984375;-0.123291015625;0.247314453125;-0.969482421875
1489432307436;2.140625;-1.21875;2.984375;-0.123291015625;0.247314453125;-0.969482421875
1489432307576;2.140625;-1.21875;2.984375;-0.123291015625;0.247314453125;-0.969482421875
1489432307716;2.140625;-1.21875;2.984375;-0.123291015625;0.247314453125;-0.969482421875
1489432307856;2.140625;-1.21875;2.984375;-0.123291015625;0.247314453125;-0.969482421875
1489432307996;2.140625;-1.21875;2.984375;-0.123291015625;0.247314453125;-0.969482421875
1489432308142;2.140625;-1.21875;2.984375;-0.123291015625;0.247314453125;-0.969482421875
1489432308276;0.4140625;-0.1796875;4.8046875;-0.04541015625;0.189208984375;-0.983154296875
1489432308416;0.4140625;-0.1796875;4.8046875;-0.04541015625;0.189208984375;-0.983154296875
1489432308556;0.4140625;-0.1796875;4.8046875;-0.04541015625;0.189208984375;-0.983154296875
1489432308696;0.4140625;-0.1796875;4.8046875;-0.04541015625;0.189208984375;-0.983154296875
1489432308836;0.4140625;-0.1796875;4.8046875;-0.04541015625;0.189208984375;-0.983154296875
1489432308976;0.4140625;-0.1796875;4.8046875;-0.04541015625;0.189208984375;-0.983154296875
1489432309116;0.4140625;-0.1796875;4.8046875;-0.04541015625;0.189208984375;-0.983154296875
1489432309256;3.0390625;-0.640625;1.890625;-0.03271484375;0.259765625;-0.9931640625
1489432309396;3.0390625;-0.640625;1.890625;-0.03271484375;0.259765625;-0.9931640625
1489432309542;3.0390625;-0.640625;1.890625;-0.03271484375;0.259765625;-0.9931640625
1489432309676;3.0390625;-0.640625;1.890625;-0.03271484375;0.259765625;-0.9931640625
1489432309816;3.0390625;-0.640625;1.890625;-0.03271484375;0.259765625;-0.9931640625
1489432309956;3.0390625;-0.640625;1.890625;-0.03271484375;0.259765625;-0.9931640625
1489432310096;3.0390625;-0.640625;1.890625;-0.03271484375;0.259765625;-0.9931640625
1489432310236;-0.0703125;-0.7265625;3.8671875;-0.065185546875;0.25341796875;-0.968017578125
1489432310376;-0.0703125;-0.7265625;3.8671875;-0.065185546875;0.25341796875;-0.968017578125
1489432310516;-0.0703125;-0.7265625;3.8671875;-0.065185546875;0.25341796875;-0.968017578125
1489432310656;-0.0703125;-0.7265625;3.8671875;-0.065185546875;0.25341796875;-0.968017578125
1489432310796;-0.0703125;-0.7265625;3.8671875;-0.065185546875;0.25341796875;-0.968017578125
1489432310936;-0.0703125;-0.7265625;3.8671875;-0.065185546875;0.25341796875;-0.968017578125
1489432311082;-0.0703125;-0.7265625;3.8671875;-0.065185546875;0.25341796875;-0.968017578125
1489432311216;-0.3515625;-0.4140625;3.2109375;-0.0205078125;0.18896484375;-0.99072265625
1489432311356;-0.3515625;-0.4140625;3.2109375;-0.0205078125;0.18896484375;-0.99072265625
1489432311496;-0.3515625;-0.4140625;3.2109375;-0.0205078125;0.18896484375;-0.99072265625
1489432311636;-0.3515625;-0.4140625;3.2109375;-0.0205078125;0.18896484375;-0.99072265625
1489432311776;-0.3515625;-0.4140625;3.2109375;-0.0205078125;0.18896484375;-0.99072265625
1489432311916;-0.3515625;-0.4140625;3.2109375;-0.0205078125;0.18896484375;-0.99072265625
1489432312056;-0.3515625;-0.4140625;3.2109375;-0.0205078125;0.18896484375;-0.99072265625
1489432312196;1.703125;-0.1015625;3.671875;0.00048828125;0.239013671875;-0.938232421875
1489432312342;1.703125;-0.1015625;3.671875;0.00048828125;0.239013671875;-0.938232421875
1489432312476;1.703125;-0.1015625;3.671875;0.00048828125;0.239013671875;-0.938232421875
1489432312616;1.703125;-0.1015625;3.671875;0.00048828125;0.239013671875;-0.938232421875
1489432312762;1.703125;-0.1015625;3.671875;0.00048828125;0.239013671875;-0.938232421875
1489432312896;1.703125;-0.1015625;3.671875;0.00048828125;0.239013671875;-0.938232421875
1489432313036;1.703125;-0.1015625;3.671875;0.00048828125;0.239013671875;-0.938232421875
1489432313176;-4.0078125;-1.8671875;3.859375;-0.03564453125;0.278076171875;-0.9296875
1489432313322;-4.0078125;-1.8671875;3.859375;-0.03564453125;0.278076171875;-0.9296875
1489432313456;-4.0078125;-1.8671875;3.859375;-0.03564453125;0.278076171875;-0.9296875
1489432313596;-4.0078125;-1.8671875;3.859375;-0.03564453125;0.278076171875;-0.9296875
1489432313736;-4.0078125;-1.8671875;3.859375;-0.03564453125;0.278076171875;-0.9296875
1489432313876;-4.0078125;-1.8671875;3.859375;-0.03564453125;0.278076171875;-0.9296875
1489432314016;-4.0078125;-1.8671875;3.859375;-0.03564453125;0.278076171875;-0.9296875
1489432314156;-2.5546875;-1.1015625;2.328125;-0.0537109375;0.185302734375;-0.929443359375
1489432314296;-2.5546875;-1.1015625;2.328125;-0.0537109375;0.185302734375;-0.929443359375
1489432314436;-2.5546875;-1.1015625;2.328125;-0.0537109375;0.185302734375;-0.929443359375
1489432314576;-2.5546875;-1.1015625;2.328125;-0.0537109375;0.185302734375;-0.929443359375
1489432314716;-2.5546875;-1.1015625;2.328125;-0.0537109375;0.185302734375;-0.929443359375
1489432314856;-2.5546875;-1.1015625;2.328125;-0.0537109375;0.185302734375;-0.929443359375
1489432314996;-2.5546875;-1.1015625;2.328125;-0.0537109375;0.185302734375;-0.929443359375
1489432315136;-2.5546875;-1.1015625;2.328125;-0.0537109375;0.185302734375;-0.929443359375
1489432315276;0.4921875;-3.9921875;-0.6171875;-0.05712890625;0.21728515625;-1.00512695312
1489432315416;0.4921875;-3.9921875;-0.6171875;-0.05712890625;0.21728515625;-1.00512695312
1489432315556;0.4921875;-3.9921875;-0.6171875;-0.05712890625;0.21728515625;-1.00512695312
1489432315702;0.4921875;-3.9921875;-0.6171875;-0.05712890625;0.21728515625;-1.00512695312
1489432315836;0.4921875;-3.9921875;-0.6171875;-0.05712890625;0.21728515625;-1.00512695312
1489432315976;0.4921875;-3.9921875;-0.6171875;-0.05712890625;0.21728515625;-1.00512695312
1489432316116;0.4921875;-3.9921875;-0.6171875;-0.05712890625;0.21728515625;-1.00512695312
1489432316256;1.796875;-2.09375;3.8828125;0.000732421875;0.325927734375;-1.01391601562
1489432316396;1.796875;-2.09375;3.8828125;0.000732421875;0.325927734375;-1.01391601562
1489432316542;1.796875;-2.09375;3.8828125;0.000732421875;0.325927734375;-1.01391601562
1489432316676;1.796875;-2.09375;3.8828125;0.000732421875;0.325927734375;-1.01391601562
1489432316892;1.796875;-2.09375;3.8828125;0.000732421875;0.325927734375;-1.01391601562
1489432317026;1.796875;-2.09375;3.8828125;0.000732421875;0.325927734375;-1.01391601562
1489432317166;-0.984375;0.484375;4.53125;-0.03125;0.264404296875;-0.991943359375
1489432317306;-0.984375;0.484375;4.53125;-0.03125;0.264404296875;-0.991943359375
1489432317586;-0.984375;0.484375;4.53125;-0.03125;0.264404296875;-0.991943359375
1489432317726;-0.984375;0.484375;4.53125;-0.03125;0.264404296875;-0.991943359375
1489432317866;-0.984375;0.484375;4.53125;-0.03125;0.264404296875;-0.991943359375
1489432318006;-0.984375;0.484375;4.53125;-0.03125;0.264404296875;-0.991943359375
1489432318146;-3.5859375;-1.4140625;3.3671875;-0.06884765625;0.191650390625;-0.990966796875
1489432318286;-3.5859375;-1.4140625;3.3671875;-0.06884765625;0.191650390625;-0.990966796875
1489432318426;-3.5859375;-1.4140625;3.3671875;-0.06884765625;0.191650390625;-0.990966796875
1489432318566;-3.5859375;-1.4140625;3.3671875;-0.06884765625;0.191650390625;-0.990966796875
1489432318712;-3.5859375;-1.4140625;3.3671875;-0.06884765625;0.191650390625;-0.990966796875
1489432318846;-3.5859375;-1.4140625;3.3671875;-0.06884765625;0.191650390625;-0.990966796875
1489432318986;-3.5859375;-1.4140625;3.3671875;-0.06884765625;0.191650390625;-0.990966796875
1489432319126;-3.5859375;-1.4140625;3.3671875;-0.06884765625;0.191650390625;-0.990966796875
1489432319266;1.796875;-2.0625;3.3515625;-0.051513671875;0.19873046875;-0.967529296875
1489432319406;1.796875;-2.0625;3.3515625;-0.051513671875;0.19873046875;-0.967529296875
1489432319546;1.796875;-2.0625;3.3515625;-0.051513671875;0.19873046875;-0.967529296875
1489432319692;1.796875;-2.0625;3.3515625;-0.051513671875;0.19873046875;-0.967529296875
1489432319826;1.796875;-2.0625;3.3515625;-0.051513671875;0.19873046875;-0.967529296875
1489432319966;1.796875;-2.0625;3.3515625;-0.051513671875;0.19873046875;-0.967529296875
1489432320106;1.796875;-2.0625;3.3515625;-0.051513671875;0.19873046875;-0.967529296875
1489432320246;-0.3125;-0.65625;3.0234375;-0.04443359375;0.226806640625;-0.96533203125
1489432320386;-0.3125;-0.65625;3.0234375;-0.04443359375;0.226806640625;-0.96533203125
1489432320526;-0.3125;-0.65625;3.0234375;-0.04443359375;0.226806640625;-0.96533203125
1489432320666;-0.3125;-0.65625;3.0234375;-0.04443359375;0.226806640625;-0.96533203125
1489432320812;-0.3125;-0.65625;3.0234375;-0.04443359375;0.226806640625;-0.96533203125
1489432320946;-0.3125;-0.65625;3.0234375;-0.04443359375;0.226806640625;-0.96533203125
1489432321086;-0.3125;-0.65625;3.0234375;-0.04443359375;0.226806640625;-0.96533203125
1489432321232;0.34375;0.2265625;2.3203125;-0.087158203125;0.214599609375;-0.93798828125
1489432321366;0.34375;0.2265625;2.3203125;-0.087158203125;0.214599609375;-0.93798828125
1489432321506;0.34375;0.2265625;2.3203125;-0.087158203125;0.214599609375;-0.93798828125
1489432321646;0.34375;0.2265625;2.3203125;-0.087158203125;0.214599609375;-0.93798828125
1489432321786;0.34375;0.2265625;2.3203125;-0.087158203125;0.214599609375;-0.93798828125
1489432321926;0.34375;0.2265625;2.3203125;-0.087158203125;0.214599609375;-0.93798828125
1489432322072;0.34375;0.2265625;2.3203125;-0.087158203125;0.214599609375;-0.93798828125
1489432322206;0.1640625;-0.8359375;4.1328125;-0.050537109375;0.2900390625;-0.95654296875
1489432322346;0.1640625;-0.8359375;4.1328125;-0.050537109375;0.2900390625;-0.95654296875
1489432322486;0.1640625;-0.8359375;4.1328125;-0.050537109375;0.2900390625;-0.95654296875
1489432322626;0.1640625;-0.8359375;4.1328125;-0.050537109375;0.2900390625;-0.95654296875
1489432322766;0.1640625;-0.8359375;4.1328125;-0.050537109375;0.2900390625;-0.95654296875
1489432322906;0.1640625;-0.8359375;4.1328125;-0.050537109375;0.2900390625;-0.95654296875
1489432323046;0.1640625;-0.8359375;4.1328125;-0.050537109375;0.2900390625;-0.95654296875
1489432323186;0.609375;-1.1328125;3.6171875;-0.051025390625;0.279296875;-1.02319335938
1489432323326;0.609375;-1.1328125;3.6171875;-0.051025390625;0.279296875;-1.02319335938
1489432323466;0.609375;-1.1328125;3.6171875;-0.051025390625;0.279296875;-1.02319335938
1489432323606;0.609375;-1.1328125;3.6171875;-0.051025390625;0.279296875;-1.02319335938
1489432323746;0.609375;-1.1328125;3.6171875;-0.051025390625;0.279296875;-1.02319335938
1489432323886;0.609375;-1.1328125;3.6171875;-0.051025390625;0.279296875;-1.02319335938
1489432324026;0.609375;-1.1328125;3.6171875;-0.051025390625;0.279296875;-1.02319335938
1489432324166;0.7734375;-1.2578125;2.296875;-0.060791015625;0.23095703125;-0.96337890625
1489432324306;0.7734375;-1.2578125;2.296875;-0.060791015625;0.23095703125;-0.96337890625
1489432324446;0.7734375;-1.2578125;2.296875;-0.060791015625;0.23095703125;-0.96337890625
1489432324586;0.7734375;-1.2578125;2.296875;-0.060791015625;0.23095703125;-0.96337890625
1489432324726;0.7734375;-1.2578125;2.296875;-0.060791015625;0.23095703125;-0.96337890625
1489432324866;0.7734375;-1.2578125;2.296875;-0.060791015625;0.23095703125;-0.96337890625
1489432325006;0.7734375;-1.2578125;2.296875;-0.060791015625;0.23095703125;-0.96337890625
1489432325146;0.3671875;0.2265625;3.7578125;-0.076416015625;0.2265625;-0.94580078125
1489432325286;0.3671875;0.2265625;3.7578125;-0.076416015625;0.2265625;-0.94580078125
1489432325426;0.3671875;0.2265625;3.7578125;-0.076416015625;0.2265625;-0.94580078125
1489432325566;0.3671875;0.2265625;3.7578125;-0.076416015625;0.2265625;-0.94580078125
1489432325776;0.3671875;0.2265625;3.7578125;-0.076416015625;0.2265625;-0.94580078125
1489432325916;0.3671875;0.2265625;3.7578125;-0.076416015625;0.2265625;-0.94580078125
1489432326056;0.3671875;0.2265625;3.7578125;-0.076416015625;0.2265625;-0.94580078125
1489432326196;1.5546875;-1.9765625;3.03125;-0.056884765625;0.284423828125;-0.94921875
1489432326336;1.5546875;-1.9765625;3.03125;-0.056884765625;0.284423828125;-0.94921875
1489432326476;1.5546875;-1.9765625;3.03125;-0.056884765625;0.284423828125;-0.94921875
1489432326616;1.5546875;-1.9765625;3.03125;-0.056884765625;0.284423828125;-0.94921875
1489432326762;1.5546875;-1.9765625;3.03125;-0.056884765625;0.284423828125;-0.94921875
1489432326896;1.5546875;-1.9765625;3.03125;-0.056884765625;0.284423828125;-0.94921875
1489432327036;1.5546875;-1.9765625;3.03125;-0.056884765625;0.284423828125;-0.94921875
1489432327176;1.5078125;0.1875;2.46875;0.02734375;0.237548828125;-0.98095703125
1489432327316;1.5078125;0.1875;2.46875;0.02734375;0.237548828125;-0.98095703125
1489432327456;1.5078125;0.1875;2.46875;0.02734375;0.237548828125;-0.98095703125
1489432327596;1.5078125;0.1875;2.46875;0.02734375;0.237548828125;-0.98095703125
1489432327736;1.5078125;0.1875;2.46875;0.02734375;0.237548828125;-0.98095703125
1489432327882;1.5078125;0.1875;2.46875;0.02734375;0.237548828125;-0.98095703125
1489432328016;1.5078125;0.1875;2.46875;0.02734375;0.237548828125;-0.98095703125
1489432328156;0.46875;-0.640625;3.0078125;-0.034423828125;0.221923828125;-0.9287109375
1489432328296;0.46875;-0.640625;3.0078125;-0.034423828125;0.221923828125;-0.9287109375
1489432328435;0.46875;-0.640625;3.0078125;-0.034423828125;0.221923828125;-0.9287109375
1489432328576;0.46875;-0.640625;3.0078125;-0.034423828125;0.221923828125;-0.9287109375
1489432328715;0.46875;-0.640625;3.0078125;-0.034423828125;0.221923828125;-0.9287109375
1489432328862;0.46875;-0.640625;3.0078125;-0.034423828125;0.221923828125;-0.9287109375
1489432328995;0.46875;-0.640625;3.0078125;-0.034423828125;0.221923828125;-0.9287109375
1489432329135;0.46875;-0.640625;3.0078125;-0.034423828125;0.221923828125;-0.9287109375
1489432329275;0.7109375;-0.6015625;2.71875;-0.021240234375;0.2822265625;-0.985595703125
1489432329415;0.7109375;-0.6015625;2.71875;-0.021240234375;0.2822265625;-0.985595703125
1489432329555;0.7109375;-0.6015625;2.71875;-0.021240234375;0.2822265625;-0.985595703125
1489432329695;0.7109375;-0.6015625;2.71875;-0.021240234375;0.2822265625;-0.985595703125
1489432329835;0.7109375;-0.6015625;2.71875;-0.021240234375;0.2822265625;-0.985595703125
1489432329982;0.7109375;-0.6015625;2.71875;-0.021240234375;0.2822265625;-0.985595703125
1489432330115;0.7109375;-0.6015625;2.71875;-0.021240234375;0.2822265625;-0.985595703125
1489432330255;3.3515625;0.6875;3.46875;-0.04443359375;0.26708984375;-0.969970703125
1489432330395;3.3515625;0.6875;3.46875;-0.04443359375;0.26708984375;-0.969970703125
1489432330536;3.3515625;0.6875;3.46875;-0.04443359375;0.26708984375;-0.969970703125
1489432330675;3.3515625;0.6875;3.46875;-0.04443359375;0.26708984375;-0.969970703125
1489432330815;3.3515625;0.6875;3.46875;-0.04443359375;0.26708984375;-0.969970703125
1489432330955;3.3515625;0.6875;3.46875;-0.04443359375;0.26708984375;-0.969970703125
1489432331095;3.3515625;0.6875;3.46875;-0.04443359375;0.26708984375;-0.969970703125
1489432331242;1.515625;-0.0625;4.484375;-0.024658203125;0.243408203125;-0.99609375
1489432331375;1.515625;-0.0625;4.484375;-0.024658203125;0.243408203125;-0.99609375
1489432331522;1.515625;-0.0625;4.484375;-0.024658203125;0.243408203125;-0.99609375
1489432331655;1.515625;-0.0625;4.484375;-0.024658203125;0.243408203125;-0.99609375
1489432331795;1.515625;-0.0625;4.484375;-0.024658203125;0.243408203125;-0.99609375
1489432331935;1.515625;-0.0625;4.484375;-0.024658203125;0.243408203125;-0.99609375
1489432332082;1.515625;-0.0625;4.484375;-0.024658203125;0.243408203125;-0.99609375
1489432332215;-0.78125;-0.6953125;3.6640625;-0.033447265625;0.26416015625;-1.04296875
1489432332355;-0.78125;-0.6953125;3.6640625;-0.033447265625;0.26416015625;-1.04296875
1489432332502;-0.78125;-0.6953125;3.6640625;-0.033447265625;0.26416015625;-1.04296875
1489432332635;-0.78125;-0.6953125;3.6640625;-0.033447265625;0.26416015625;-1.04296875
1489432332776;-0.78125;-0.6953125;3.6640625;-0.033447265625;0.26416015625;-1.04296875
1489432332915;-0.78125;-0.6953125;3.6640625;-0.033447265625;0.26416015625;-1.04296875
1489432333056;-0.78125;-0.6953125;3.6640625;-0.033447265625;0.26416015625;-1.04296875
1489432333195;0.8671875;-0.453125;3.90625;-0.06689453125;0.295654296875;-1.01879882812
1489432333336;0.8671875;-0.453125;3.90625;-0.06689453125;0.295654296875;-1.01879882812
1489432333475;0.8671875;-0.453125;3.90625;-0.06689453125;0.295654296875;-1.01879882812
1489432333616;0.8671875;-0.453125;3.90625;-0.06689453125;0.295654296875;-1.01879882812
1489432333755;0.8671875;-0.453125;3.90625;-0.06689453125;0.295654296875;-1.01879882812
1489432333896;0.8671875;-0.453125;3.90625;-0.06689453125;0.295654296875;-1.01879882812
1489432334035;0.8671875;-0.453125;3.90625;-0.06689453125;0.295654296875;-1.01879882812
1489432334176;3.3046875;1.765625;3.65625;-0.041015625;0.24853515625;-0.963134765625
1489432334315;3.3046875;1.765625;3.65625;-0.041015625;0.24853515625;-0.963134765625
1489432334456;3.3046875;1.765625;3.65625;-0.041015625;0.24853515625;-0.963134765625
1489432334595;3.3046875;1.765625;3.65625;-0.041015625;0.24853515625;-0.963134765625
1489432334736;3.3046875;1.765625;3.65625;-0.041015625;0.24853515625;-0.963134765625
1489432334875;3.3046875;1.765625;3.65625;-0.041015625;0.24853515625;-0.963134765625
1489432335016;3.3046875;1.765625;3.65625;-0.041015625;0.24853515625;-0.963134765625
1489432335155;-1.8671875;-1.59375;2.40625;-0.072265625;0.24951171875;-0.945068359375
1489432335295;-1.8671875;-1.59375;2.40625;-0.072265625;0.24951171875;-0.945068359375
1489432335435;-1.8671875;-1.59375;2.40625;-0.072265625;0.24951171875;-0.945068359375
1489432335575;-1.8671875;-1.59375;2.40625;-0.072265625;0.24951171875;-0.945068359375
1489432335722;-1.8671875;-1.59375;2.40625;-0.072265625;0.24951171875;-0.945068359375
1489432335855;-1.8671875;-1.59375;2.40625;-0.072265625;0.24951171875;-0.945068359375
