timestamp;gyro-alpha;gyro-beta;gyro-gamma;accel-x;accel-y;accel-z
1489512959955;-21.3671875;-13.1015625;-8.859375;1.24975585938;0.240234375;0.017578125
1489512960095;-21.3671875;-13.1015625;-8.859375;1.24975585938;0.240234375;0.017578125
1489512960235;-38.5;2.796875;75.5625;1.3203125;0.163818359375;0.054443359375
1489512960375;-38.5;2.796875;75.5625;1.3203125;0.163818359375;0.054443359375
1489512960515;-38.5;2.796875;75.5625;1.3203125;0.163818359375;0.054443359375
1489512960655;-38.5;2.796875;75.5625;1.3203125;0.163818359375;0.054443359375
1489512960795;-38.5;2.796875;75.5625;1.3203125;0.163818359375;0.054443359375
1489512960935;-38.5;2.796875;75.5625;1.3203125;0.163818359375;0.054443359375
1489512961075;-38.5;2.796875;75.5625;1.3203125;0.163818359375;0.054443359375
1489512961215;28.25;-42.140625;-153.9296875;0.91748046875;0.069091796875;0.093994140625
1489512961355;28.25;-42.140625;-153.9296875;0.91748046875;0.069091796875;0.093994140625
1489512961495;28.25;-42.140625;-153.9296875;0.91748046875;0.069091796875;0.093994140625
1489512961635;28.25;-42.140625;-153.9296875;0.91748046875;0.069091796875;0.093994140625
1489512961775;28.25;-42.140625;-153.9296875;0.91748046875;0.069091796875;0.093994140625
1489512961985;28.25;-42.140625;-153.9296875;0.91748046875;0.069091796875;0.093994140625
1489512962125;28.25;-42.140625;-153.9296875;0.91748046875;0.069091796875;0.093994140625
1489512962265;70.1875;-54.5625;-154.75;1.31616210938;0.160888671875;0.090576171875
1489512962405;70.1875;-54.5625;-154.75;1.31616210938;0.160888671875;0.090576171875
1489512962545;70.1875;-54.5625;-154.75;1.31616210938;0.160888671875;0.090576171875
1489512962685;70.1875;-54.5625;-154.75;1.31616210938;0.160888671875;0.090576171875
1489512962825;70.1875;-54.5625;-154.75;1.31616210938;0.160888671875;0.090576171875
1489512962965;70.1875;-54.5625;-154.75;1.31616210938;0.160888671875;0.090576171875
1489512963105;70.1875;-54.5625;-154.75;1.31616210938;0.160888671875;0.090576171875
1489512963245;81.75;31.8046875;-32.71875;1.51147460938;0.806640625;-0.084228515625
1489512963385;81.75;31.8046875;-32.71875;1.51147460938;0.806640625;-0.084228515625
1489512963525;81.75;31.8046875;-32.71875;1.51147460938;0.806640625;-0.084228515625
1489512963665;81.75;31.8046875;-32.71875;1.51147460938;0.806640625;-0.084228515625
1489512963805;81.75;31.8046875;-32.71875;1.51147460938;0.806640625;-0.084228515625
1489512963945;81.75;31.8046875;-32.71875;1.51147460938;0.806640625;-0.084228515625
1489512964085;81.75;31.8046875;-32.71875;1.51147460938;0.806640625;-0.084228515625
1489512964225;-24.703125;-3.328125;9.609375;1.46606445312;0.467529296875;-0.04931640625
1489512964365;-24.703125;-3.328125;9.609375;1.46606445312;0.467529296875;-0.04931640625
1489512964505;-24.703125;-3.328125;9.609375;1.46606445312;0.467529296875;-0.04931640625
1489512964645;-24.703125;-3.328125;9.609375;1.46606445312;0.467529296875;-0.04931640625
1489512964785;-24.703125;-3.328125;9.609375;1.46606445312;0.467529296875;-0.04931640625
1489512964925;-24.703125;-3.328125;9.609375;1.46606445312;0.467529296875;-0.04931640625
1489512965065;-24.703125;-3.328125;9.609375;1.46606445312;0.467529296875;-0.04931640625
1489512965205;-75.7890625;-20.3125;22.7265625;0.85546875;0.3623046875;0.0634765625
1489512965345;-75.7890625;-20.3125;22.7265625;0.85546875;0.3623046875;0.0634765625
1489512965485;-75.7890625;-20.3125;22.7265625;0.85546875;0.3623046875;0.0634765625
1489512965625;-75.7890625;-20.3125;22.7265625;0.85546875;0.3623046875;0.0634765625
1489512965765;-75.7890625;-20.3125;22.7265625;0.85546875;0.3623046875;0.0634765625
1489512965975;-75.7890625;-20.3125;22.7265625;0.85546875;0.3623046875;0.0634765625
1489512966115;-75.7890625;-20.3125;22.7265625;0.85546875;0.3623046875;0.0634765625
1489512966255;-5.78125;84.859375;179.671875;1.35131835938;0.398681640625;-0.179931640625
1489512966395;-5.78125;84.859375;179.671875;1.35131835938;0.398681640625;-0.179931640625
1489512966535;-5.78125;84.859375;179.671875;1.35131835938;0.398681640625;-0.179931640625
1489512966675;-5.78125;84.859375;179.671875;1.35131835938;0.398681640625;-0.179931640625
1489512966815;-5.78125;84.859375;179.671875;1.35131835938;0.398681640625;-0.179931640625
1489512966955;-5.78125;84.859375;179.671875;1.35131835938;0.398681640625;-0.179931640625
1489512967095;-5.78125;84.859375;179.671875;1.35131835938;0.398681640625;-0.179931640625
1489512967235;48.7890625;129.3203125;156.3828125;1.44970703125;0.13037109375;-0.059326171875
1489512967375;48.7890625;129.3203125;156.3828125;1.44970703125;0.13037109375;-0.059326171875
1489512967515;48.7890625;129.3203125;156.3828125;1.44970703125;0.13037109375;-0.059326171875
1489512967655;48.7890625;129.3203125;156.3828125;1.44970703125;0.13037109375;-0.059326171875
1489512967795;48.7890625;129.3203125;156.3828125;1.44970703125;0.13037109375;-0.059326171875
1489512967935;48.7890625;129.3203125;156.3828125;1.44970703125;0.13037109375;-0.059326171875
1489512968075;48.7890625;129.3203125;156.3828125;1.44970703125;0.13037109375;-0.059326171875
1489512968215;-0.3515625;-29.0859375;-77.6875;0.906982421875;-0.0107421875;0.127197265625
1489512968355;-0.3515625;-29.0859375;-77.6875;0.906982421875;-0.0107421875;0.127197265625
1489512968495;-0.3515625;-29.0859375;-77.6875;0.906982421875;-0.0107421875;0.127197265625
1489512968635;-0.3515625;-29.0859375;-77.6875;0.906982421875;-0.0107421875;0.127197265625
1489512968775;-0.3515625;-29.0859375;-77.6875;0.906982421875;-0.0107421875;0.127197265625
1489512968915;-0.3515625;-29.0859375;-77.6875;0.906982421875;-0.0107421875;0.127197265625
1489512969055;-0.3515625;-29.0859375;-77.6875;0.906982421875;-0.0107421875;0.127197265625
1489512969195;-7.5;-57.4921875;-148.1640625;0.93505859375;0.12451171875;0.134521484375
1489512969335;-7.5;-57.4921875;-148.1640625;0.93505859375;0.12451171875;0.134521484375
1489512969475;-7.5;-57.4921875;-148.1640625;0.93505859375;0.12451171875;0.134521484375
1489512969615;-7.5;-57.4921875;-148.1640625;0.93505859375;0.12451171875;0.134521484375
1489512969755;-7.5;-57.4921875;-148.1640625;0.93505859375;0.12451171875;0.134521484375
1489512969895;-7.5;-57.4921875;-148.1640625;0.93505859375;0.12451171875;0.134521484375
1489512970035;-7.5;-57.4921875;-148.1640625;0.93505859375;0.12451171875;0.134521484375
1489512970175;54.890625;-62.1953125;-150.765625;1.21020507812;0.178466796875;0.103271484375
1489512970315;54.890625;-62.1953125;-150.765625;1.21020507812;0.178466796875;0.103271484375
1489512970455;54.890625;-62.1953125;-150.765625;1.21020507812;0.178466796875;0.103271484375
1489512970595;54.890625;-62.1953125;-150.765625;1.21020507812;0.178466796875;0.103271484375
1489512970735;54.890625;-62.1953125;-150.765625;1.21020507812;0.178466796875;0.103271484375
1489512970875;54.890625;-62.1953125;-150.765625;1.21020507812;0.178466796875;0.103271484375
1489512971015;54.890625;-62.1953125;-150.765625;1.21020507812;0.178466796875;0.103271484375
1489512971155;54.890625;-62.1953125;-150.765625;1.21020507812;0.178466796875;0.103271484375
1489512971295;93.5078125;-69.296875;-120.0859375;1.3173828125;0.32666015625;0.011962890625
1489512971435;93.5078125;-69.296875;-120.0859375;1.3173828125;0.32666015625;0.011962890625
1489512971575;93.5078125;-69.296875;-120.0859375;1.3173828125;0.32666015625;0.011962890625
1489512971715;93.5078125;-69.296875;-120.0859375;1.3173828125;0.32666015625;0.011962890625
1489512971855;93.5078125;-69.296875;-120.0859375;1.3173828125;0.32666015625;0.011962890625
1489512971995;93.5078125;-69.296875;-120.0859375;1.3173828125;0.32666015625;0.011962890625
1489512972135;93.5078125;-69.296875;-120.0859375;1.3173828125;0.32666015625;0.011962890625
1489512972275;46.8203125;13.0859375;-59.5390625;1.41821289062;0.715087890625;-0.089111328125
1489512972415;46.8203125;13.0859375;-59.5390625;1.41821289062;0.715087890625;-0.089111328125
1489512972555;46.8203125;13.0859375;-59.5390625;1.41821289062;0.715087890625;-0.089111328125
1489512972695;46.8203125;13.0859375;-59.5390625;1.41821289062;0.715087890625;-0.089111328125
1489512972835;46.8203125;13.0859375;-59.5390625;1.41821289062;0.715087890625;-0.089111328125
1489512972975;46.8203125;13.0859375;-59.5390625;1.41821289062;0.715087890625;-0.089111328125
1489512973115;46.8203125;13.0859375;-59.5390625;1.41821289062;0.715087890625;-0.089111328125
1489512973325;43.0625;21.875;59.78125;1.32055664062;0.488037109375;-0.155029296875
1489512973465;43.0625;21.875;59.78125;1.32055664062;0.488037109375;-0.155029296875
1489512973605;43.0625;21.875;59.78125;1.32055664062;0.488037109375;-0.155029296875
1489512973745;43.0625;21.875;59.78125;1.32055664062;0.488037109375;-0.155029296875
1489512973885;43.0625;21.875;59.78125;1.32055664062;0.488037109375;-0.155029296875
1489512974095;43.0625;21.875;59.78125;1.32055664062;0.488037109375;-0.155029296875
1489512974235;13.8671875;22.3984375;85.65625;1.3330078125;0.512939453125;-0.201171875
1489512974375;13.8671875;22.3984375;85.65625;1.3330078125;0.512939453125;-0.201171875
1489512974515;13.8671875;22.3984375;85.65625;1.3330078125;0.512939453125;-0.201171875
1489512974655;13.8671875;22.3984375;85.65625;1.3330078125;0.512939453125;-0.201171875
1489512974795;13.8671875;22.3984375;85.65625;1.3330078125;0.512939453125;-0.201171875
1489512974935;13.8671875;22.3984375;85.65625;1.3330078125;0.512939453125;-0.201171875
1489512975075;13.8671875;22.3984375;85.65625;1.3330078125;0.512939453125;-0.201171875
1489512975215;-127.140625;-8.0546875;114.21875;1.10815429688;0.40771484375;-0.03125
1489512975355;-127.140625;-8.0546875;114.21875;1.10815429688;0.40771484375;-0.03125
1489512975495;-127.140625;-8.0546875;114.21875;1.10815429688;0.40771484375;-0.03125
1489512975635;-127.140625;-8.0546875;114.21875;1.10815429688;0.40771484375;-0.03125
1489512975775;-127.140625;-8.0546875;114.21875;1.10815429688;0.40771484375;-0.03125
1489512975915;-127.140625;-8.0546875;114.21875;1.10815429688;0.40771484375;-0.03125
1489512976055;-127.140625;-8.0546875;114.21875;1.10815429688;0.40771484375;-0.03125
1489512976195;-142.3671875;-11.3046875;78.515625;0.76904296875;0.319091796875;-0.013916015625
1489512976335;-142.3671875;-11.3046875;78.515625;0.76904296875;0.319091796875;-0.013916015625
1489512976475;-142.3671875;-11.3046875;78.515625;0.76904296875;0.319091796875;-0.013916015625
1489512976615;-142.3671875;-11.3046875;78.515625;0.76904296875;0.319091796875;-0.013916015625
1489512976755;-142.3671875;-11.3046875;78.515625;0.76904296875;0.319091796875;-0.013916015625
1489512976895;-142.3671875;-11.3046875;78.515625;0.76904296875;0.319091796875;-0.013916015625
1489512977035;-142.3671875;-11.3046875;78.515625;0.76904296875;0.319091796875;-0.013916015625
1489512977175;-21.875;44.9140625;151.578125;1.33447265625;0.27978515625;-0.2216796875
1489512977315;-21.875;44.9140625;151.578125;1.33447265625;0.27978515625;-0.2216796875
1489512977455;-21.875;44.9140625;151.578125;1.33447265625;0.27978515625;-0.2216796875
1489512977665;-21.875;44.9140625;151.578125;1.33447265625;0.27978515625;-0.2216796875
1489512977805;-21.875;44.9140625;151.578125;1.33447265625;0.27978515625;-0.2216796875
1489512977945;-21.875;44.9140625;151.578125;1.33447265625;0.27978515625;-0.2216796875
1489512978085;-21.875;44.9140625;151.578125;1.33447265625;0.27978515625;-0.2216796875
1489512978225;64.7890625;54.9453125;46.46875;0.876953125;0.122314453125;-0.17822265625
1489512978365;64.7890625;54.9453125;46.46875;0.876953125;0.122314453125;-0.17822265625
1489512978505;64.7890625;54.9453125;46.46875;0.876953125;0.122314453125;-0.17822265625
1489512978645;64.7890625;54.9453125;46.46875;0.876953125;0.122314453125;-0.17822265625
1489512978785;64.7890625;54.9453125;46.46875;0.876953125;0.122314453125;-0.17822265625
1489512978925;64.7890625;54.9453125;46.46875;0.876953125;0.122314453125;-0.17822265625
1489512979065;64.7890625;54.9453125;46.46875;0.876953125;0.122314453125;-0.17822265625
1489512979205;-6.3671875;-25.234375;-120.8203125;1.02075195312;0.1201171875;0.123779296875
1489512979345;-6.3671875;-25.234375;-120.8203125;1.02075195312;0.1201171875;0.123779296875
1489512979485;-6.3671875;-25.234375;-120.8203125;1.02075195312;0.1201171875;0.123779296875
1489512979625;-6.3671875;-25.234375;-120.8203125;1.02075195312;0.1201171875;0.123779296875
1489512979765;-6.3671875;-25.234375;-120.8203125;1.02075195312;0.1201171875;0.123779296875
1489512979905;-6.3671875;-25.234375;-120.8203125;1.02075195312;0.1201171875;0.123779296875
1489512980045;-6.3671875;-25.234375;-120.8203125;1.02075195312;0.1201171875;0.123779296875
1489512980185;5.4921875;-53.03125;-132.140625;1.4375;0.31982421875;-0.00048828125
1489512980325;5.4921875;-53.03125;-132.140625;1.4375;0.31982421875;-0.00048828125
1489512980465;5.4921875;-53.03125;-132.140625;1.4375;0.31982421875;-0.00048828125
1489512980605;5.4921875;-53.03125;-132.140625;1.4375;0.31982421875;-0.00048828125
1489512980745;5.4921875;-53.03125;-132.140625;1.4375;0.31982421875;-0.00048828125
1489512980885;5.4921875;-53.03125;-132.140625;1.4375;0.31982421875;-0.00048828125
1489512981025;5.4921875;-53.03125;-132.140625;1.4375;0.31982421875;-0.00048828125
1489512981165;-123.4375;-18.75;-75.53125;1.19897460938;0.344482421875;-0.228515625
1489512981305;-123.4375;-18.75;-75.53125;1.19897460938;0.344482421875;-0.228515625
1489512981445;-123.4375;-18.75;-75.53125;1.19897460938;0.344482421875;-0.228515625
1489512981585;-123.4375;-18.75;-75.53125;1.19897460938;0.344482421875;-0.228515625
1489512981725;-123.4375;-18.75;-75.53125;1.19897460938;0.344482421875;-0.228515625
1489512981865;-123.4375;-18.75;-75.53125;1.19897460938;0.344482421875;-0.228515625
1489512982005;-123.4375;-18.75;-75.53125;1.19897460938;0.344482421875;-0.228515625
1489512982145;-123.4375;-18.75;-75.53125;1.19897460938;0.344482421875;-0.228515625
1489512982285;-5.8203125;-8.21875;63.4375;1.31640625;0.45751953125;-0.0361328125
1489512982425;-5.8203125;-8.21875;63.4375;1.31640625;0.45751953125;-0.0361328125
1489512982565;-5.8203125;-8.21875;63.4375;1.31640625;0.45751953125;-0.0361328125
1489512982705;-5.8203125;-8.21875;63.4375;1.31640625;0.45751953125;-0.0361328125
1489512982845;-5.8203125;-8.21875;63.4375;1.31640625;0.45751953125;-0.0361328125
1489512982985;-5.8203125;-8.21875;63.4375;1.31640625;0.45751953125;-0.0361328125
1489512983125;-5.8203125;-8.21875;63.4375;1.31640625;0.45751953125;-0.0361328125
1489512983265;-93.625;-6.046875;70.1015625;0.87744140625;0.35107421875;-0.0322265625
1489512983405;-93.625;-6.046875;70.1015625;0.87744140625;0.35107421875;-0.0322265625
1489512983545;-93.625;-6.046875;70.1015625;0.87744140625;0.35107421875;-0.0322265625
1489512983685;-93.625;-6.046875;70.1015625;0.87744140625;0.35107421875;-0.0322265625
1489512983825;-93.625;-6.046875;70.1015625;0.87744140625;0.35107421875;-0.0322265625
1489512983965;-93.625;-6.046875;70.1015625;0.87744140625;0.35107421875;-0.0322265625
1489512984105;-93.625;-6.046875;70.1015625;0.87744140625;0.35107421875;-0.0322265625
1489512984245;-43.3125;22.578125;110.34375;1.16186523438;0.463623046875;-0.1474609375
1489512984385;-43.3125;22.578125;110.34375;1.16186523438;0.463623046875;-0.1474609375
1489512984525;-43.3125;22.578125;110.34375;1.16186523438;0.463623046875;-0.1474609375
1489512984665;-43.3125;22.578125;110.34375;1.16186523438;0.463623046875;-0.1474609375
1489512984805;-43.3125;22.578125;110.34375;1.16186523438;0.463623046875;-0.1474609375
1489512984945;-43.3125;22.578125;110.34375;1.16186523438;0.463623046875;-0.1474609375
1489512985085;-43.3125;22.578125;110.34375;1.16186523438;0.463623046875;-0.1474609375
1489512985225;53.109375;45.953125;43.6484375;0.565673828125;0.060546875;-0.187744140625
1489512985365;53.109375;45.953125;43.6484375;0.565673828125;0.060546875;-0.187744140625
1489512985505;53.109375;45.953125;43.6484375;0.565673828125;0.060546875;-0.187744140625
1489512985645;53.109375;45.953125;43.6484375;0.565673828125;0.060546875;-0.187744140625
1489512985785;53.109375;45.953125;43.6484375;0.565673828125;0.060546875;-0.187744140625
1489512985925;53.109375;45.953125;43.6484375;0.565673828125;0.060546875;-0.187744140625
1489512986065;53.109375;45.953125;43.6484375;0.565673828125;0.060546875;-0.187744140625
1489512986205;-0.78125;-43.171875;-118.96875;0.85205078125;0.150146484375;0.119384765625
1489512986345;-0.78125;-43.171875;-118.96875;0.85205078125;0.150146484375;0.119384765625
1489512986485;-0.78125;-43.171875;-118.96875;0.85205078125;0.150146484375;0.119384765625
1489512986625;-0.78125;-43.171875;-118.96875;0.85205078125;0.150146484375;0.119384765625
1489512986765;-0.78125;-43.171875;-118.96875;0.85205078125;0.150146484375;0.119384765625
1489512986905;-0.78125;-43.171875;-118.96875;0.85205078125;0.150146484375;0.119384765625
1489512987045;-0.78125;-43.171875;-118.96875;0.85205078125;0.150146484375;0.119384765625
1489512987185;107.25;13.953125;-84.0234375;1.31665039062;0.311767578125;-0.031005859375
1489512987325;107.25;13.953125;-84.0234375;1.31665039062;0.311767578125;-0.031005859375
1489512987465;107.25;13.953125;-84.0234375;1.31665039062;0.311767578125;-0.031005859375
1489512987605;107.25;13.953125;-84.0234375;1.31665039062;0.311767578125;-0.031005859375
1489512987745;107.25;13.953125;-84.0234375;1.31665039062;0.311767578125;-0.031005859375
1489512987885;107.25;13.953125;-84.0234375;1.31665039062;0.311767578125;-0.031005859375
1489512988025;107.25;13.953125;-84.0234375;1.31665039062;0.311767578125;-0.031005859375
1489512988165;12.234375;-7.0625;-5.1171875;1.31274414062;0.218994140625;-0.184326171875
1489512988305;12.234375;-7.0625;-5.1171875;1.31274414062;0.218994140625;-0.184326171875
1489512988445;12.234375;-7.0625;-5.1171875;1.31274414062;0.218994140625;-0.184326171875
1489512988585;12.234375;-7.0625;-5.1171875;1.31274414062;0.218994140625;-0.184326171875
1489512988725;12.234375;-7.0625;-5.1171875;1.31274414062;0.218994140625;-0.184326171875
1489512988865;12.234375;-7.0625;-5.1171875;1.31274414062;0.218994140625;-0.184326171875
1489512989005;12.234375;-7.0625;-5.1171875;1.31274414062;0.218994140625;-0.184326171875
1489512989145;12.234375;-7.0625;-5.1171875;1.31274414062;0.218994140625;-0.184326171875
1489512989285;-124.3203125;-2.4609375;15.15625;0.7861328125;0.34814453125;-0.1044921875
1489512989425;-124.3203125;-2.4609375;15.15625;0.7861328125;0.34814453125;-0.1044921875
1489512989565;-124.3203125;-2.4609375;15.15625;0.7861328125;0.34814453125;-0.1044921875
1489512989705;-124.3203125;-2.4609375;15.15625;0.7861328125;0.34814453125;-0.1044921875
1489512989845;-124.3203125;-2.4609375;15.15625;0.7861328125;0.34814453125;-0.1044921875
