timestamp;gyro-alpha;gyro-beta;gyro-gamma;accel-x;accel-y;accel-z
1489430355746;9.3828125;-1.2734375;2.1171875;0.2685546875;0.100830078125;-1.00756835938
1489430355886;9.3828125;-1.2734375;2.1171875;0.2685546875;0.100830078125;-1.00756835938
1489430356026;9.3828125;-1.2734375;2.1171875;0.2685546875;0.100830078125;-1.00756835938
1489430356166;4.28125;2.6640625;2.1015625;0.14208984375;-0.09033203125;-1.02001953125
1489430356306;4.28125;2.6640625;2.1015625;0.14208984375;-0.09033203125;-1.02001953125
1489430356446;4.28125;2.6640625;2.1015625;0.14208984375;-0.09033203125;-1.02001953125
1489430356593;4.28125;2.6640625;2.1015625;0.14208984375;-0.09033203125;-1.02001953125
1489430356726;4.28125;2.6640625;2.1015625;0.14208984375;-0.09033203125;-1.02001953125
1489430356866;4.28125;2.6640625;2.1015625;0.14208984375;-0.09033203125;-1.02001953125
1489430357006;4.28125;2.6640625;2.1015625;0.14208984375;-0.09033203125;-1.02001953125
1489430357146;-0.5;-0.484375;4.0;0.173095703125;-0.13134765625;-0.94140625
1489430357286;-0.5;-0.484375;4.0;0.173095703125;-0.13134765625;-0.94140625
1489430357426;-0.5;-0.484375;4.0;0.173095703125;-0.13134765625;-0.94140625
1489430357566;-0.5;-0.484375;4.0;0.173095703125;-0.13134765625;-0.94140625
1489430357706;-0.5;-0.484375;4.0;0.173095703125;-0.13134765625;-0.94140625
1489430357846;-0.5;-0.484375;4.0;0.173095703125;-0.13134765625;-0.94140625
1489430357986;-0.5;-0.484375;4.0;0.173095703125;-0.13134765625;-0.94140625
1489430358126;2.6640625;2.9375;0.4375;0.1533203125;-0.126953125;-0.999755859375
1489430358266;2.6640625;2.9375;0.4375;0.1533203125;-0.126953125;-0.999755859375
1489430358406;2.6640625;2.9375;0.4375;0.1533203125;-0.126953125;-0.999755859375
1489430358546;2.6640625;2.9375;0.4375;0.1533203125;-0.126953125;-0.999755859375
1489430358686;2.6640625;2.9375;0.4375;0.1533203125;-0.126953125;-0.999755859375
1489430358826;2.6640625;2.9375;0.4375;0.1533203125;-0.126953125;-0.999755859375
1489430358966;2.6640625;2.9375;0.4375;0.1533203125;-0.126953125;-0.999755859375
1489430359112;-6.359375;-0.0234375;-1.03125;0.141357421875;-0.2138671875;-1.03344726562
1489430359246;-6.359375;-0.0234375;-1.03125;0.141357421875;-0.2138671875;-1.03344726562
1489430359386;-6.359375;-0.0234375;-1.03125;0.141357421875;-0.2138671875;-1.03344726562
1489430359532;-6.359375;-0.0234375;-1.03125;0.141357421875;-0.2138671875;-1.03344726562
1489430359666;-6.359375;-0.0234375;-1.03125;0.141357421875;-0.2138671875;-1.03344726562
1489430359806;-6.359375;-0.0234375;-1.03125;0.141357421875;-0.2138671875;-1.03344726562
1489430359946;-6.359375;-0.0234375;-1.03125;0.141357421875;-0.2138671875;-1.03344726562
1489430360086;-7.5234375;-0.78125;5.2890625;0.365478515625;-0.1142578125;-1.0673828125
1489430360226;-7.5234375;-0.78125;5.2890625;0.365478515625;-0.1142578125;-1.0673828125
1489430360366;-7.5234375;-0.78125;5.2890625;0.365478515625;-0.1142578125;-1.0673828125
1489430360506;-7.5234375;-0.78125;5.2890625;0.365478515625;-0.1142578125;-1.0673828125
1489430360646;-7.5234375;-0.78125;5.2890625;0.365478515625;-0.1142578125;-1.0673828125
1489430360786;-7.5234375;-0.78125;5.2890625;0.365478515625;-0.1142578125;-1.0673828125
1489430360926;-7.5234375;-0.78125;5.2890625;0.365478515625;-0.1142578125;-1.0673828125
1489430361066;5.7265625;-0.8671875;4.3828125;0.20654296875;-0.16259765625;-0.9990234375
1489430361206;5.7265625;-0.8671875;4.3828125;0.20654296875;-0.16259765625;-0.9990234375
1489430361346;5.7265625;-0.8671875;4.3828125;0.20654296875;-0.16259765625;-0.9990234375
1489430361486;5.7265625;-0.8671875;4.3828125;0.20654296875;-0.16259765625;-0.9990234375
1489430361626;5.7265625;-0.8671875;4.3828125;0.20654296875;-0.16259765625;-0.9990234375
1489430361772;5.7265625;-0.8671875;4.3828125;0.20654296875;-0.16259765625;-0.9990234375
1489430361906;5.7265625;-0.8671875;4.3828125;0.20654296875;-0.16259765625;-0.9990234375
1489430362046;5.7265625;-0.8671875;4.3828125;0.20654296875;-0.16259765625;-0.9990234375
1489430362186;-7.96875;0.390625;-0.8828125;0.159423828125;-0.19091796875;-0.993408203125
1489430362326;-7.96875;0.390625;-0.8828125;0.159423828125;-0.19091796875;-0.993408203125
1489430362472;-7.96875;0.390625;-0.8828125;0.159423828125;-0.19091796875;-0.993408203125
1489430362606;-7.96875;0.390625;-0.8828125;0.159423828125;-0.19091796875;-0.993408203125
1489430362746;-7.96875;0.390625;-0.8828125;0.159423828125;-0.19091796875;-0.993408203125
1489430362892;-7.96875;0.390625;-0.8828125;0.159423828125;-0.19091796875;-0.993408203125
1489430363026;-7.96875;0.390625;-0.8828125;0.159423828125;-0.19091796875;-0.993408203125
1489430363166;-0.0546875;-0.8359375;4.1328125;0.2470703125;-0.2099609375;-0.964599609375
1489430363306;-0.0546875;-0.8359375;4.1328125;0.2470703125;-0.2099609375;-0.964599609375
1489430363446;-0.0546875;-0.8359375;4.1328125;0.2470703125;-0.2099609375;-0.964599609375
1489430363586;-0.0546875;-0.8359375;4.1328125;0.2470703125;-0.2099609375;-0.964599609375
1489430363733;-0.0546875;-0.8359375;4.1328125;0.2470703125;-0.2099609375;-0.964599609375
1489430363866;-0.0546875;-0.8359375;4.1328125;0.2470703125;-0.2099609375;-0.964599609375
1489430364006;-0.0546875;-0.8359375;4.1328125;0.2470703125;-0.2099609375;-0.964599609375
1489430364152;1.8359375;-4.984375;4.7265625;0.1689453125;-0.14794921875;-0.941162109375
1489430364286;1.8359375;-4.984375;4.7265625;0.1689453125;-0.14794921875;-0.941162109375
1489430364426;1.8359375;-4.984375;4.7265625;0.1689453125;-0.14794921875;-0.941162109375
1489430364566;1.8359375;-4.984375;4.7265625;0.1689453125;-0.14794921875;-0.941162109375
1489430364706;1.8359375;-4.984375;4.7265625;0.1689453125;-0.14794921875;-0.941162109375
1489430364846;1.8359375;-4.984375;4.7265625;0.1689453125;-0.14794921875;-0.941162109375
1489430364986;1.8359375;-4.984375;4.7265625;0.1689453125;-0.14794921875;-0.941162109375
1489430365126;1.0625;-1.921875;3.65625;0.263427734375;-0.06396484375;-1.03881835938
1489430365266;1.0625;-1.921875;3.65625;0.263427734375;-0.06396484375;-1.03881835938
1489430365406;1.0625;-1.921875;3.65625;0.263427734375;-0.06396484375;-1.03881835938
1489430365546;1.0625;-1.921875;3.65625;0.263427734375;-0.06396484375;-1.03881835938
1489430365686;1.0625;-1.921875;3.65625;0.263427734375;-0.06396484375;-1.03881835938
1489430365826;1.0625;-1.921875;3.65625;0.263427734375;-0.06396484375;-1.03881835938
1489430365966;1.0625;-1.921875;3.65625;0.263427734375;-0.06396484375;-1.03881835938
1489430366106;10.015625;-3.7890625;6.34375;0.233642578125;-0.1669921875;-0.985595703125
1489430366246;10.015625;-3.7890625;6.34375;0.233642578125;-0.1669921875;-0.985595703125
1489430366386;10.015625;-3.7890625;6.34375;0.233642578125;-0.1669921875;-0.985595703125
1489430366526;10.015625;-3.7890625;6.34375;0.233642578125;-0.1669921875;-0.985595703125
1489430366666;10.015625;-3.7890625;6.34375;0.233642578125;-0.1669921875;-0.985595703125
1489430366806;10.015625;-3.7890625;6.34375;0.233642578125;-0.1669921875;-0.985595703125
1489430366946;10.015625;-3.7890625;6.34375;0.233642578125;-0.1669921875;-0.985595703125
1489430367092;12.4765625;-0.515625;3.09375;0.254150390625;-0.177490234375;-0.964599609375
1489430367226;12.4765625;-0.515625;3.09375;0.254150390625;-0.177490234375;-0.964599609375
1489430367366;12.4765625;-0.515625;3.09375;0.254150390625;-0.177490234375;-0.964599609375
1489430367506;12.4765625;-0.515625;3.09375;0.254150390625;-0.177490234375;-0.964599609375
1489430367652;12.4765625;-0.515625;3.09375;0.254150390625;-0.177490234375;-0.964599609375
1489430367786;12.4765625;-0.515625;3.09375;0.254150390625;-0.177490234375;-0.964599609375
1489430367926;12.4765625;-0.515625;3.09375;0.254150390625;-0.177490234375;-0.964599609375
1489430368066;-0.34375;-0.171875;3.0703125;0.204833984375;-0.18115234375;-0.9765625
1489430368206;-0.34375;-0.171875;3.0703125;0.204833984375;-0.18115234375;-0.9765625
1489430368346;-0.34375;-0.171875;3.0703125;0.204833984375;-0.18115234375;-0.9765625
1489430368486;-0.34375;-0.171875;3.0703125;0.204833984375;-0.18115234375;-0.9765625
1489430368626;-0.34375;-0.171875;3.0703125;0.204833984375;-0.18115234375;-0.9765625
1489430368766;-0.34375;-0.171875;3.0703125;0.204833984375;-0.18115234375;-0.9765625
1489430368906;-0.34375;-0.171875;3.0703125;0.204833984375;-0.18115234375;-0.9765625
1489430369046;-0.34375;-0.171875;3.0703125;0.204833984375;-0.18115234375;-0.9765625
1489430369186;0.6640625;-1.59375;5.5;0.1083984375;-0.174560546875;-0.9287109375
1489430369326;0.6640625;-1.59375;5.5;0.1083984375;-0.174560546875;-0.9287109375
1489430369466;0.6640625;-1.59375;5.5;0.1083984375;-0.174560546875;-0.9287109375
1489430369606;0.6640625;-1.59375;5.5;0.1083984375;-0.174560546875;-0.9287109375
1489430369746;0.6640625;-1.59375;5.5;0.1083984375;-0.174560546875;-0.9287109375
1489430369886;0.6640625;-1.59375;5.5;0.1083984375;-0.174560546875;-0.9287109375
1489430370026;0.6640625;-1.59375;5.5;0.1083984375;-0.174560546875;-0.9287109375
1489430370166;-0.4375;-1.53125;2.140625;0.14306640625;-0.173095703125;-0.995849609375
1489430370306;-0.4375;-1.53125;2.140625;0.14306640625;-0.173095703125;-0.995849609375
1489430370446;-0.4375;-1.53125;2.140625;0.14306640625;-0.173095703125;-0.995849609375
1489430370586;-0.4375;-1.53125;2.140625;0.14306640625;-0.173095703125;-0.995849609375
1489430370726;-0.4375;-1.53125;2.140625;0.14306640625;-0.173095703125;-0.995849609375
1489430370866;-0.4375;-1.53125;2.140625;0.14306640625;-0.173095703125;-0.995849609375
1489430371006;-0.4375;-1.53125;2.140625;0.14306640625;-0.173095703125;-0.995849609375
1489430371146;0.109375;-1.546875;2.875;0.123291015625;-0.1884765625;-0.932373046875
1489430371286;0.109375;-1.546875;2.875;0.123291015625;-0.1884765625;-0.932373046875
1489430371426;0.109375;-1.546875;2.875;0.123291015625;-0.1884765625;-0.932373046875
1489430371572;0.109375;-1.546875;2.875;0.123291015625;-0.1884765625;-0.932373046875
1489430371706;0.109375;-1.546875;2.875;0.123291015625;-0.1884765625;-0.932373046875
1489430371846;0.109375;-1.546875;2.875;0.123291015625;-0.1884765625;-0.932373046875
1489430371986;0.109375;-1.546875;2.875;0.123291015625;-0.1884765625;-0.932373046875
1489430372126;1.0078125;-2.265625;2.0546875;0.161865234375;-0.19677734375;-0.932373046875
1489430372266;1.0078125;-2.265625;2.0546875;0.161865234375;-0.19677734375;-0.932373046875
1489430372412;1.0078125;-2.265625;2.0546875;0.161865234375;-0.19677734375;-0.932373046875
1489430372546;1.0078125;-2.265625;2.0546875;0.161865234375;-0.19677734375;-0.932373046875
1489430372686;1.0078125;-2.265625;2.0546875;0.161865234375;-0.19677734375;-0.932373046875
1489430372826;1.0078125;-2.265625;2.0546875;0.161865234375;-0.19677734375;-0.932373046875
1489430373036;1.0078125;-2.265625;2.0546875;0.161865234375;-0.19677734375;-0.932373046875
1489430373176;0.2265625;-2.8046875;2.90625;0.162109375;-0.222412109375;-0.965087890625
1489430373322;0.2265625;-2.8046875;2.90625;0.162109375;-0.222412109375;-0.965087890625
1489430373456;0.2265625;-2.8046875;2.90625;0.162109375;-0.222412109375;-0.965087890625
1489430373596;0.2265625;-2.8046875;2.90625;0.162109375;-0.222412109375;-0.965087890625
1489430373742;0.2265625;-2.8046875;2.90625;0.162109375;-0.222412109375;-0.965087890625
1489430373876;0.2265625;-2.8046875;2.90625;0.162109375;-0.222412109375;-0.965087890625
1489430374016;0.2265625;-2.8046875;2.90625;0.162109375;-0.222412109375;-0.965087890625
1489430374156;1.9375;0.703125;4.1171875;0.182373046875;-0.232177734375;-1.04052734375
1489430374296;1.9375;0.703125;4.1171875;0.182373046875;-0.232177734375;-1.04052734375
1489430374436;1.9375;0.703125;4.1171875;0.182373046875;-0.232177734375;-1.04052734375
1489430374576;1.9375;0.703125;4.1171875;0.182373046875;-0.232177734375;-1.04052734375
1489430374716;1.9375;0.703125;4.1171875;0.182373046875;-0.232177734375;-1.04052734375
1489430374856;1.9375;0.703125;4.1171875;0.182373046875;-0.232177734375;-1.04052734375
1489430374996;1.9375;0.703125;4.1171875;0.182373046875;-0.232177734375;-1.04052734375
1489430375136;2.46875;-0.1484375;2.984375;0.166748046875;-0.23876953125;-0.9814453125
1489430375276;2.46875;-0.1484375;2.984375;0.166748046875;-0.23876953125;-0.9814453125
1489430375422;2.46875;-0.1484375;2.984375;0.166748046875;-0.23876953125;-0.9814453125
1489430375556;2.46875;-0.1484375;2.984375;0.166748046875;-0.23876953125;-0.9814453125
1489430375696;2.46875;-0.1484375;2.984375;0.166748046875;-0.23876953125;-0.9814453125
1489430375836;2.46875;-0.1484375;2.984375;0.166748046875;-0.23876953125;-0.9814453125
1489430375976;2.46875;-0.1484375;2.984375;0.166748046875;-0.23876953125;-0.9814453125
1489430376116;0.96875;-1.015625;4.328125;0.156494140625;-0.1845703125;-0.98828125
1489430376256;0.96875;-1.015625;4.328125;0.156494140625;-0.1845703125;-0.98828125
1489430376396;0.96875;-1.015625;4.328125;0.156494140625;-0.1845703125;-0.98828125
1489430376536;0.96875;-1.015625;4.328125;0.156494140625;-0.1845703125;-0.98828125
1489430376676;0.96875;-1.015625;4.328125;0.156494140625;-0.1845703125;-0.98828125
1489430376816;0.96875;-1.015625;4.328125;0.156494140625;-0.1845703125;-0.98828125
1489430376956;0.96875;-1.015625;4.328125;0.156494140625;-0.1845703125;-0.98828125
1489430377102;0.8203125;-1.1484375;2.171875;0.146484375;-0.26318359375;-0.95947265625
1489430377236;0.8203125;-1.1484375;2.171875;0.146484375;-0.26318359375;-0.95947265625
1489430377376;0.8203125;-1.1484375;2.171875;0.146484375;-0.26318359375;-0.95947265625
1489430377516;0.8203125;-1.1484375;2.171875;0.146484375;-0.26318359375;-0.95947265625
1489430377656;0.8203125;-1.1484375;2.171875;0.146484375;-0.26318359375;-0.95947265625
1489430377796;0.8203125;-1.1484375;2.171875;0.146484375;-0.26318359375;-0.95947265625
1489430377936;0.8203125;-1.1484375;2.171875;0.146484375;-0.26318359375;-0.95947265625
1489430378076;0.4921875;-1.4609375;4.625;0.145751953125;-0.15673828125;-0.979248046875
1489430378216;0.4921875;-1.4609375;4.625;0.145751953125;-0.15673828125;-0.979248046875
1489430378362;0.4921875;-1.4609375;4.625;0.145751953125;-0.15673828125;-0.979248046875
1489430378496;0.4921875;-1.4609375;4.625;0.145751953125;-0.15673828125;-0.979248046875
1489430378636;0.4921875;-1.4609375;4.625;0.145751953125;-0.15673828125;-0.979248046875
1489430378776;0.4921875;-1.4609375;4.625;0.145751953125;-0.15673828125;-0.979248046875
1489430378916;0.4921875;-1.4609375;4.625;0.145751953125;-0.15673828125;-0.979248046875
1489430379056;0.4921875;-1.4609375;4.625;0.145751953125;-0.15673828125;-0.979248046875
1489430379196;0.75;-0.4921875;0.921875;0.204833984375;-0.239013671875;-0.950927734375
1489430379342;0.75;-0.4921875;0.921875;0.204833984375;-0.239013671875;-0.950927734375
1489430379476;0.75;-0.4921875;0.921875;0.204833984375;-0.239013671875;-0.950927734375
1489430379616;0.75;-0.4921875;0.921875;0.204833984375;-0.239013671875;-0.950927734375
1489430379755;0.75;-0.4921875;0.921875;0.204833984375;-0.239013671875;-0.950927734375
1489430379895;0.75;-0.4921875;0.921875;0.204833984375;-0.239013671875;-0.950927734375
1489430380035;0.75;-0.4921875;0.921875;0.204833984375;-0.239013671875;-0.950927734375
1489430380182;0.3046875;-0.375;3.6484375;0.138671875;-0.207763671875;-0.932373046875
1489430380315;0.3046875;-0.375;3.6484375;0.138671875;-0.207763671875;-0.932373046875
1489430380455;0.3046875;-0.375;3.6484375;0.138671875;-0.207763671875;-0.932373046875
1489430380595;0.3046875;-0.375;3.6484375;0.138671875;-0.207763671875;-0.932373046875
1489430380735;0.3046875;-0.375;3.6484375;0.138671875;-0.207763671875;-0.932373046875
1489430380945;0.3046875;-0.375;3.6484375;0.138671875;-0.207763671875;-0.932373046875
1489430381085;0.2890625;-0.5546875;3.34375;0.1982421875;-0.202880859375;-0.988525390625
1489430381225;0.2890625;-0.5546875;3.34375;0.1982421875;-0.202880859375;-0.988525390625
1489430381365;0.2890625;-0.5546875;3.34375;0.1982421875;-0.202880859375;-0.988525390625
1489430381512;0.2890625;-0.5546875;3.34375;0.1982421875;-0.202880859375;-0.988525390625
1489430381645;0.2890625;-0.5546875;3.34375;0.1982421875;-0.202880859375;-0.988525390625
1489430381785;0.2890625;-0.5546875;3.34375;0.1982421875;-0.202880859375;-0.988525390625
1489430381925;0.2890625;-0.5546875;3.34375;0.1982421875;-0.202880859375;-0.988525390625
1489430382065;1.3203125;-1.546875;4.59375;0.20849609375;-0.206298828125;-0.988525390625
1489430382206;1.3203125;-1.546875;4.59375;0.20849609375;-0.206298828125;-0.988525390625
1489430382352;1.3203125;-1.546875;4.59375;0.20849609375;-0.206298828125;-0.988525390625
1489430382485;1.3203125;-1.546875;4.59375;0.20849609375;-0.206298828125;-0.988525390625
1489430382625;1.3203125;-1.546875;4.59375;0.20849609375;-0.206298828125;-0.988525390625
1489430382765;1.3203125;-1.546875;4.59375;0.20849609375;-0.206298828125;-0.988525390625
1489430382905;1.3203125;-1.546875;4.59375;0.20849609375;-0.206298828125;-0.988525390625
1489430383045;1.3203125;-1.546875;4.59375;0.20849609375;-0.206298828125;-0.988525390625
1489430383192;-2.6875;-0.3203125;-1.3515625;0.14501953125;-0.19970703125;-0.996337890625
1489430383325;-2.6875;-0.3203125;-1.3515625;0.14501953125;-0.19970703125;-0.996337890625
1489430383465;-2.6875;-0.3203125;-1.3515625;0.14501953125;-0.19970703125;-0.996337890625
1489430383612;-2.6875;-0.3203125;-1.3515625;0.14501953125;-0.19970703125;-0.996337890625
1489430383745;-2.6875;-0.3203125;-1.3515625;0.14501953125;-0.19970703125;-0.996337890625
1489430383885;-2.6875;-0.3203125;-1.3515625;0.14501953125;-0.19970703125;-0.996337890625
1489430384025;-2.6875;-0.3203125;-1.3515625;0.14501953125;-0.19970703125;-0.996337890625
1489430384166;4.390625;5.3984375;-1.7734375;0.1591796875;-0.2685546875;-0.978515625
1489430384306;4.390625;5.3984375;-1.7734375;0.1591796875;-0.2685546875;-0.978515625
1489430384452;4.390625;5.3984375;-1.7734375;0.1591796875;-0.2685546875;-0.978515625
1489430384586;4.390625;5.3984375;-1.7734375;0.1591796875;-0.2685546875;-0.978515625
1489430384726;4.390625;5.3984375;-1.7734375;0.1591796875;-0.2685546875;-0.978515625
1489430384866;4.390625;5.3984375;-1.7734375;0.1591796875;-0.2685546875;-0.978515625
1489430385006;4.390625;5.3984375;-1.7734375;0.1591796875;-0.2685546875;-0.978515625
1489430385152;1.3203125;-2.9375;2.5;0.177734375;-0.25146484375;-0.9599609375
1489430385286;1.3203125;-2.9375;2.5;0.177734375;-0.25146484375;-0.9599609375
1489430385426;1.3203125;-2.9375;2.5;0.177734375;-0.25146484375;-0.9599609375
1489430385566;1.3203125;-2.9375;2.5;0.177734375;-0.25146484375;-0.9599609375
1489430385706;1.3203125;-2.9375;2.5;0.177734375;-0.25146484375;-0.9599609375
