timestamp;gyro-alpha;gyro-beta;gyro-gamma;accel-x;accel-y;accel-z
1489435229603;-39.6328125;-6.4453125;16.2734375;0.98876953125;-0.029296875;0.281494140625
1489435229743;-39.6328125;-6.4453125;16.2734375;0.98876953125;-0.029296875;0.281494140625
1489435229883;-29.5703125;-28.9765625;-55.9765625;1.26879882812;0.08544921875;0.172607421875
1489435230023;-29.5703125;-28.9765625;-55.9765625;1.26879882812;0.08544921875;0.172607421875
1489435230163;-29.5703125;-28.9765625;-55.9765625;1.26879882812;0.08544921875;0.172607421875
1489435230303;-29.5703125;-28.9765625;-55.9765625;1.26879882812;0.08544921875;0.172607421875
1489435230513;-29.5703125;-28.9765625;-55.9765625;1.26879882812;0.08544921875;0.172607421875
1489435230653;-29.5703125;-28.9765625;-55.9765625;1.26879882812;0.08544921875;0.172607421875
1489435230793;-29.5703125;-28.9765625;-55.9765625;1.26879882812;0.08544921875;0.172607421875
1489435230933;37.03125;18.234375;19.546875;0.683837890625;0.056640625;-0.0146484375
1489435231073;37.03125;18.234375;19.546875;0.683837890625;0.056640625;-0.0146484375
1489435231213;37.03125;18.234375;19.546875;0.683837890625;0.056640625;-0.0146484375
1489435231353;37.03125;18.234375;19.546875;0.683837890625;0.056640625;-0.0146484375
1489435231493;37.03125;18.234375;19.546875;0.683837890625;0.056640625;-0.0146484375
1489435231634;37.03125;18.234375;19.546875;0.683837890625;0.056640625;-0.0146484375
1489435231773;37.03125;18.234375;19.546875;0.683837890625;0.056640625;-0.0146484375
1489435231913;-5.1640625;-40.890625;-27.765625;0.972412109375;0.07275390625;-0.035888671875
1489435232053;-5.1640625;-40.890625;-27.765625;0.972412109375;0.07275390625;-0.035888671875
1489435232193;-5.1640625;-40.890625;-27.765625;0.972412109375;0.07275390625;-0.035888671875
1489435232334;-5.1640625;-40.890625;-27.765625;0.972412109375;0.07275390625;-0.035888671875
1489435232473;-5.1640625;-40.890625;-27.765625;0.972412109375;0.07275390625;-0.035888671875
1489435232613;-5.1640625;-40.890625;-27.765625;0.972412109375;0.07275390625;-0.035888671875
1489435232753;-5.1640625;-40.890625;-27.765625;0.972412109375;0.07275390625;-0.035888671875
1489435232893;-20.1171875;37.3515625;-0.9765625;0.728271484375;0.09912109375;0.10400390625
1489435233033;-20.1171875;37.3515625;-0.9765625;0.728271484375;0.09912109375;0.10400390625
1489435233173;-20.1171875;37.3515625;-0.9765625;0.728271484375;0.09912109375;0.10400390625
1489435233313;-20.1171875;37.3515625;-0.9765625;0.728271484375;0.09912109375;0.10400390625
1489435233453;-20.1171875;37.3515625;-0.9765625;0.728271484375;0.09912109375;0.10400390625
1489435233593;-20.1171875;37.3515625;-0.9765625;0.728271484375;0.09912109375;0.10400390625
1489435233734;-20.1171875;37.3515625;-0.9765625;0.728271484375;0.09912109375;0.10400390625
1489435233873;-20.1171875;37.3515625;-0.9765625;0.728271484375;0.09912109375;0.10400390625
1489435234083;-1.03125;55.5078125;-40.3046875;0.693603515625;0.043212890625;0.019775390625
1489435234223;-1.03125;55.5078125;-40.3046875;0.693603515625;0.043212890625;0.019775390625
1489435234363;-1.03125;55.5078125;-40.3046875;0.693603515625;0.043212890625;0.019775390625
1489435234503;-1.03125;55.5078125;-40.3046875;0.693603515625;0.043212890625;0.019775390625
1489435234644;-1.03125;55.5078125;-40.3046875;0.693603515625;0.043212890625;0.019775390625
1489435234783;-1.03125;55.5078125;-40.3046875;0.693603515625;0.043212890625;0.019775390625
1489435234923;9.0625;2.4609375;-2.40625;0.911376953125;0.104248046875;-0.00048828125
1489435235063;9.0625;2.4609375;-2.40625;0.911376953125;0.104248046875;-0.00048828125
1489435235203;9.0625;2.4609375;-2.40625;0.911376953125;0.104248046875;-0.00048828125
1489435235343;9.0625;2.4609375;-2.40625;0.911376953125;0.104248046875;-0.00048828125
1489435235483;9.0625;2.4609375;-2.40625;0.911376953125;0.104248046875;-0.00048828125
1489435235623;9.0625;2.4609375;-2.40625;0.911376953125;0.104248046875;-0.00048828125
1489435235764;9.0625;2.4609375;-2.40625;0.911376953125;0.104248046875;-0.00048828125
1489435235903;-0.03125;-26.4453125;-12.453125;0.73583984375;0.07373046875;0.159912109375
1489435236043;-0.03125;-26.4453125;-12.453125;0.73583984375;0.07373046875;0.159912109375
1489435236253;-0.03125;-26.4453125;-12.453125;0.73583984375;0.07373046875;0.159912109375
1489435236463;-0.03125;-26.4453125;-12.453125;0.73583984375;0.07373046875;0.159912109375
1489435236603;-0.03125;-26.4453125;-12.453125;0.73583984375;0.07373046875;0.159912109375
1489435236743;-0.03125;-26.4453125;-12.453125;0.73583984375;0.07373046875;0.159912109375
1489435236883;11.390625;36.5078125;48.0;0.874267578125;-0.210205078125;-0.011474609375
1489435237023;11.390625;36.5078125;48.0;0.874267578125;-0.210205078125;-0.011474609375
1489435237163;11.390625;36.5078125;48.0;0.874267578125;-0.210205078125;-0.011474609375
1489435237303;11.390625;36.5078125;48.0;0.874267578125;-0.210205078125;-0.011474609375
1489435237653;11.390625;36.5078125;48.0;0.874267578125;-0.210205078125;-0.011474609375
1489435237793;11.390625;36.5078125;48.0;0.874267578125;-0.210205078125;-0.011474609375
1489435237934;-1.765625;-17.0078125;32.828125;1.59423828125;0.2822265625;0.06201171875
1489435238073;-1.765625;-17.0078125;32.828125;1.59423828125;0.2822265625;0.06201171875
1489435238213;-1.765625;-17.0078125;32.828125;1.59423828125;0.2822265625;0.06201171875
1489435238353;-1.765625;-17.0078125;32.828125;1.59423828125;0.2822265625;0.06201171875
1489435238493;-1.765625;-17.0078125;32.828125;1.59423828125;0.2822265625;0.06201171875
1489435238633;-1.765625;-17.0078125;32.828125;1.59423828125;0.2822265625;0.06201171875
1489435238913;-1.765625;-17.0078125;32.828125;1.59423828125;0.2822265625;0.06201171875
1489435239053;-26.953125;-1.1171875;15.2578125;0.8359375;0.323486328125;0.032958984375
1489435239193;-26.953125;-1.1171875;15.2578125;0.8359375;0.323486328125;0.032958984375
1489435239333;-26.953125;-1.1171875;15.2578125;0.8359375;0.323486328125;0.032958984375
1489435239473;-26.953125;-1.1171875;15.2578125;0.8359375;0.323486328125;0.032958984375
1489435239683;-26.953125;-1.1171875;15.2578125;0.8359375;0.323486328125;0.032958984375
1489435239893;-26.953125;-1.1171875;15.2578125;0.8359375;0.323486328125;0.032958984375
1489435240033;-69.5625;-130.90625;-88.2265625;2.04272460938;0.02734375;0.51123046875
1489435240173;-69.5625;-130.90625;-88.2265625;2.04272460938;0.02734375;0.51123046875
1489435240313;-69.5625;-130.90625;-88.2265625;2.04272460938;0.02734375;0.51123046875
1489435240454;-69.5625;-130.90625;-88.2265625;2.04272460938;0.02734375;0.51123046875
1489435240803;-69.5625;-130.90625;-88.2265625;2.04272460938;0.02734375;0.51123046875
1489435240944;74.625;-51.7890625;-67.8671875;1.48974609375;-0.12060546875;0.20654296875
1489435241083;74.625;-51.7890625;-67.8671875;1.48974609375;-0.12060546875;0.20654296875
1489435241224;74.625;-51.7890625;-67.8671875;1.48974609375;-0.12060546875;0.20654296875
1489435241363;74.625;-51.7890625;-67.8671875;1.48974609375;-0.12060546875;0.20654296875
1489435241503;74.625;-51.7890625;-67.8671875;1.48974609375;-0.12060546875;0.20654296875
1489435241643;74.625;-51.7890625;-67.8671875;1.48974609375;-0.12060546875;0.20654296875
1489435241853;74.625;-51.7890625;-67.8671875;1.48974609375;-0.12060546875;0.20654296875
1489435241993;75.9921875;97.484375;-41.8828125;1.45629882812;-0.0693359375;-0.05224609375
1489435242134;75.9921875;97.484375;-41.8828125;1.45629882812;-0.0693359375;-0.05224609375
1489435242273;75.9921875;97.484375;-41.8828125;1.45629882812;-0.0693359375;-0.05224609375
1489435242413;75.9921875;97.484375;-41.8828125;1.45629882812;-0.0693359375;-0.05224609375
1489435242554;75.9921875;97.484375;-41.8828125;1.45629882812;-0.0693359375;-0.05224609375
1489435242763;75.9921875;97.484375;-41.8828125;1.45629882812;-0.0693359375;-0.05224609375
1489435242904;-65.9453125;93.328125;36.53125;0.78173828125;0.052978515625;-0.1103515625
1489435243043;-65.9453125;93.328125;36.53125;0.78173828125;0.052978515625;-0.1103515625
1489435243183;-65.9453125;93.328125;36.53125;0.78173828125;0.052978515625;-0.1103515625
1489435243323;-65.9453125;93.328125;36.53125;0.78173828125;0.052978515625;-0.1103515625
1489435243463;-65.9453125;93.328125;36.53125;0.78173828125;0.052978515625;-0.1103515625
1489435243603;-65.9453125;93.328125;36.53125;0.78173828125;0.052978515625;-0.1103515625
1489435243743;-65.9453125;93.328125;36.53125;0.78173828125;0.052978515625;-0.1103515625
1489435243884;36.03125;4.9453125;61.578125;0.54150390625;0.16357421875;-0.10595703125
1489435244023;36.03125;4.9453125;61.578125;0.54150390625;0.16357421875;-0.10595703125
1489435244163;36.03125;4.9453125;61.578125;0.54150390625;0.16357421875;-0.10595703125
1489435244303;36.03125;4.9453125;61.578125;0.54150390625;0.16357421875;-0.10595703125
1489435244443;36.03125;4.9453125;61.578125;0.54150390625;0.16357421875;-0.10595703125
1489435244583;36.03125;4.9453125;61.578125;0.54150390625;0.16357421875;-0.10595703125
1489435244723;36.03125;4.9453125;61.578125;0.54150390625;0.16357421875;-0.10595703125
1489435244863;36.03125;4.9453125;61.578125;0.54150390625;0.16357421875;-0.10595703125
1489435245004;38.40625;6.6015625;-58.1875;0.9814453125;-0.331298828125;0.052978515625
1489435245143;38.40625;6.6015625;-58.1875;0.9814453125;-0.331298828125;0.052978515625
1489435245283;38.40625;6.6015625;-58.1875;0.9814453125;-0.331298828125;0.052978515625
1489435245563;38.40625;6.6015625;-58.1875;0.9814453125;-0.331298828125;0.052978515625
1489435245703;38.40625;6.6015625;-58.1875;0.9814453125;-0.331298828125;0.052978515625
1489435245843;38.40625;6.6015625;-58.1875;0.9814453125;-0.331298828125;0.052978515625
1489435245983;21.078125;6.4140625;-20.1015625;0.651611328125;-0.032470703125;0.098388671875
1489435246123;21.078125;6.4140625;-20.1015625;0.651611328125;-0.032470703125;0.098388671875
1489435246263;21.078125;6.4140625;-20.1015625;0.651611328125;-0.032470703125;0.098388671875
1489435246403;21.078125;6.4140625;-20.1015625;0.651611328125;-0.032470703125;0.098388671875
1489435246543;21.078125;6.4140625;-20.1015625;0.651611328125;-0.032470703125;0.098388671875
1489435246683;21.078125;6.4140625;-20.1015625;0.651611328125;-0.032470703125;0.098388671875
1489435246823;21.078125;6.4140625;-20.1015625;0.651611328125;-0.032470703125;0.098388671875
1489435246963;-8.640625;-21.4296875;36.265625;0.806396484375;-0.0498046875;0.089111328125
1489435247103;-8.640625;-21.4296875;36.265625;0.806396484375;-0.0498046875;0.089111328125
1489435247243;-8.640625;-21.4296875;36.265625;0.806396484375;-0.0498046875;0.089111328125
1489435247453;-8.640625;-21.4296875;36.265625;0.806396484375;-0.0498046875;0.089111328125
1489435247593;-8.640625;-21.4296875;36.265625;0.806396484375;-0.0498046875;0.089111328125
1489435247733;-8.640625;-21.4296875;36.265625;0.806396484375;-0.0498046875;0.089111328125
1489435247873;-8.640625;-21.4296875;36.265625;0.806396484375;-0.0498046875;0.089111328125
1489435248083;12.84375;42.859375;56.84375;0.748291015625;-0.2587890625;0.102294921875
1489435248223;12.84375;42.859375;56.84375;0.748291015625;-0.2587890625;0.102294921875
1489435248363;12.84375;42.859375;56.84375;0.748291015625;-0.2587890625;0.102294921875
1489435248503;12.84375;42.859375;56.84375;0.748291015625;-0.2587890625;0.102294921875
1489435248643;12.84375;42.859375;56.84375;0.748291015625;-0.2587890625;0.102294921875
1489435248783;12.84375;42.859375;56.84375;0.748291015625;-0.2587890625;0.102294921875
1489435248923;30.6875;14.328125;36.484375;0.943115234375;0.097900390625;0.056396484375
1489435249063;30.6875;14.328125;36.484375;0.943115234375;0.097900390625;0.056396484375
1489435249203;30.6875;14.328125;36.484375;0.943115234375;0.097900390625;0.056396484375
1489435249343;30.6875;14.328125;36.484375;0.943115234375;0.097900390625;0.056396484375
1489435249483;30.6875;14.328125;36.484375;0.943115234375;0.097900390625;0.056396484375
1489435249624;30.6875;14.328125;36.484375;0.943115234375;0.097900390625;0.056396484375
1489435249763;30.6875;14.328125;36.484375;0.943115234375;0.097900390625;0.056396484375
1489435249903;9.703125;-45.1640625;-15.390625;0.650390625;-0.092529296875;0.048583984375
1489435250043;9.703125;-45.1640625;-15.390625;0.650390625;-0.092529296875;0.048583984375
1489435250183;9.703125;-45.1640625;-15.390625;0.650390625;-0.092529296875;0.048583984375
1489435250323;9.703125;-45.1640625;-15.390625;0.650390625;-0.092529296875;0.048583984375
1489435250463;9.703125;-45.1640625;-15.390625;0.650390625;-0.092529296875;0.048583984375
1489435250603;9.703125;-45.1640625;-15.390625;0.650390625;-0.092529296875;0.048583984375
1489435250743;9.703125;-45.1640625;-15.390625;0.650390625;-0.092529296875;0.048583984375
1489435250883;-39.8125;-40.34375;-41.640625;0.702880859375;-0.111083984375;-0.06982421875
1489435251023;-39.8125;-40.34375;-41.640625;0.702880859375;-0.111083984375;-0.06982421875
1489435251233;-39.8125;-40.34375;-41.640625;0.702880859375;-0.111083984375;-0.06982421875
1489435251373;-39.8125;-40.34375;-41.640625;0.702880859375;-0.111083984375;-0.06982421875
1489435251513;-39.8125;-40.34375;-41.640625;0.702880859375;-0.111083984375;-0.06982421875
1489435251653;-39.8125;-40.34375;-41.640625;0.702880859375;-0.111083984375;-0.06982421875
1489435251794;-39.8125;-40.34375;-41.640625;0.702880859375;-0.111083984375;-0.06982421875
1489435251933;1.40625;53.5390625;-95.0703125;1.18237304688;-0.280029296875;-0.061279296875
1489435252073;1.40625;53.5390625;-95.0703125;1.18237304688;-0.280029296875;-0.061279296875
1489435252213;1.40625;53.5390625;-95.0703125;1.18237304688;-0.280029296875;-0.061279296875
1489435252353;1.40625;53.5390625;-95.0703125;1.18237304688;-0.280029296875;-0.061279296875
1489435252493;1.40625;53.5390625;-95.0703125;1.18237304688;-0.280029296875;-0.061279296875
1489435252633;1.40625;53.5390625;-95.0703125;1.18237304688;-0.280029296875;-0.061279296875
1489435252773;1.40625;53.5390625;-95.0703125;1.18237304688;-0.280029296875;-0.061279296875
1489435252913;27.75;24.0625;-61.71875;1.3994140625;-0.182861328125;0.07958984375
1489435253053;27.75;24.0625;-61.71875;1.3994140625;-0.182861328125;0.07958984375
1489435253193;27.75;24.0625;-61.71875;1.3994140625;-0.182861328125;0.07958984375
1489435253333;27.75;24.0625;-61.71875;1.3994140625;-0.182861328125;0.07958984375
1489435253473;27.75;24.0625;-61.71875;1.3994140625;-0.182861328125;0.07958984375
1489435253613;27.75;24.0625;-61.71875;1.3994140625;-0.182861328125;0.07958984375
1489435253753;27.75;24.0625;-61.71875;1.3994140625;-0.182861328125;0.07958984375
1489435253893;68.125;31.2890625;-37.8828125;1.61279296875;-0.18115234375;-0.013671875
1489435254033;68.125;31.2890625;-37.8828125;1.61279296875;-0.18115234375;-0.013671875
1489435254173;68.125;31.2890625;-37.8828125;1.61279296875;-0.18115234375;-0.013671875
1489435254313;68.125;31.2890625;-37.8828125;1.61279296875;-0.18115234375;-0.013671875
1489435254453;68.125;31.2890625;-37.8828125;1.61279296875;-0.18115234375;-0.013671875
1489435254593;68.125;31.2890625;-37.8828125;1.61279296875;-0.18115234375;-0.013671875
1489435254733;68.125;31.2890625;-37.8828125;1.61279296875;-0.18115234375;-0.013671875
1489435254873;68.125;31.2890625;-37.8828125;1.61279296875;-0.18115234375;-0.013671875
1489435255013;-9.4375;25.2578125;-68.453125;1.2734375;-0.31640625;0.071533203125
1489435255153;-9.4375;25.2578125;-68.453125;1.2734375;-0.31640625;0.071533203125
1489435255293;-9.4375;25.2578125;-68.453125;1.2734375;-0.31640625;0.071533203125
1489435255433;-9.4375;25.2578125;-68.453125;1.2734375;-0.31640625;0.071533203125
1489435255574;-9.4375;25.2578125;-68.453125;1.2734375;-0.31640625;0.071533203125
1489435255713;-9.4375;25.2578125;-68.453125;1.2734375;-0.31640625;0.071533203125
1489435255853;-9.4375;25.2578125;-68.453125;1.2734375;-0.31640625;0.071533203125
1489435255993;-14.46875;-26.265625;-30.171875;0.58984375;0.130859375;-0.13916015625
1489435256133;-14.46875;-26.265625;-30.171875;0.58984375;0.130859375;-0.13916015625
1489435256274;-14.46875;-26.265625;-30.171875;0.58984375;0.130859375;-0.13916015625
1489435256413;-14.46875;-26.265625;-30.171875;0.58984375;0.130859375;-0.13916015625
1489435256553;-14.46875;-26.265625;-30.171875;0.58984375;0.130859375;-0.13916015625
1489435256693;-14.46875;-26.265625;-30.171875;0.58984375;0.130859375;-0.13916015625
1489435256833;-14.46875;-26.265625;-30.171875;0.58984375;0.130859375;-0.13916015625
1489435257043;29.875;8.9765625;22.140625;0.677734375;-0.215087890625;0.065673828125
1489435257183;29.875;8.9765625;22.140625;0.677734375;-0.215087890625;0.065673828125
1489435257323;29.875;8.9765625;22.140625;0.677734375;-0.215087890625;0.065673828125
1489435257463;29.875;8.9765625;22.140625;0.677734375;-0.215087890625;0.065673828125
1489435257604;29.875;8.9765625;22.140625;0.677734375;-0.215087890625;0.065673828125
1489435257744;29.875;8.9765625;22.140625;0.677734375;-0.215087890625;0.065673828125
1489435257884;-2.859375;-20.6015625;24.5546875;0.930908203125;-0.0537109375;0.167724609375
1489435258023;-2.859375;-20.6015625;24.5546875;0.930908203125;-0.0537109375;0.167724609375
1489435258164;-2.859375;-20.6015625;24.5546875;0.930908203125;-0.0537109375;0.167724609375
1489435258303;-2.859375;-20.6015625;24.5546875;0.930908203125;-0.0537109375;0.167724609375
1489435258513;-2.859375;-20.6015625;24.5546875;0.930908203125;-0.0537109375;0.167724609375
1489435258654;-2.859375;-20.6015625;24.5546875;0.930908203125;-0.0537109375;0.167724609375
1489435258793;-2.859375;-20.6015625;24.5546875;0.930908203125;-0.0537109375;0.167724609375
1489435259003;-18.96875;-74.3359375;8.4921875;2.212890625;-0.104736328125;0.46142578125
1489435259144;-18.96875;-74.3359375;8.4921875;2.212890625;-0.104736328125;0.46142578125
1489435259284;-18.96875;-74.3359375;8.4921875;2.212890625;-0.104736328125;0.46142578125
1489435259424;-18.96875;-74.3359375;8.4921875;2.212890625;-0.104736328125;0.46142578125
1489435259564;-18.96875;-74.3359375;8.4921875;2.212890625;-0.104736328125;0.46142578125
