timestamp;gyro-alpha;gyro-beta;gyro-gamma;accel-x;accel-y;accel-z
1489430325716;1.53125;-0.3125;1.9765625;0.16064453125;0.0224609375;-1.01293945312
1489430325856;1.53125;-0.3125;1.9765625;0.16064453125;0.0224609375;-1.01293945312
1489430325997;1.53125;-0.3125;1.9765625;0.16064453125;0.0224609375;-1.01293945312
1489430326136;1.03125;-0.109375;4.7265625;0.12744140625;-0.005126953125;-1.0048828125
1489430326277;1.03125;-0.109375;4.7265625;0.12744140625;-0.005126953125;-1.0048828125
1489430326416;1.03125;-0.109375;4.7265625;0.12744140625;-0.005126953125;-1.0048828125
1489430326557;1.03125;-0.109375;4.7265625;0.12744140625;-0.005126953125;-1.0048828125
1489430326703;1.03125;-0.109375;4.7265625;0.12744140625;-0.005126953125;-1.0048828125
1489430326837;1.03125;-0.109375;4.7265625;0.12744140625;-0.005126953125;-1.0048828125
1489430326976;1.03125;-0.109375;4.7265625;0.12744140625;-0.005126953125;-1.0048828125
1489430327116;1.421875;-1.265625;3.4609375;0.10302734375;-0.0751953125;-1.013671875
1489430327257;1.421875;-1.265625;3.4609375;0.10302734375;-0.0751953125;-1.013671875
1489430327396;1.421875;-1.265625;3.4609375;0.10302734375;-0.0751953125;-1.013671875
1489430327543;1.421875;-1.265625;3.4609375;0.10302734375;-0.0751953125;-1.013671875
1489430327676;1.421875;-1.265625;3.4609375;0.10302734375;-0.0751953125;-1.013671875
1489430327817;1.421875;-1.265625;3.4609375;0.10302734375;-0.0751953125;-1.013671875
1489430327957;1.421875;-1.265625;3.4609375;0.10302734375;-0.0751953125;-1.013671875
1489430328096;0.0234375;-1.390625;3.359375;0.189453125;-0.0205078125;-0.97021484375
1489430328237;0.0234375;-1.390625;3.359375;0.189453125;-0.0205078125;-0.97021484375
1489430328377;0.0234375;-1.390625;3.359375;0.189453125;-0.0205078125;-0.97021484375
1489430328516;0.0234375;-1.390625;3.359375;0.189453125;-0.0205078125;-0.97021484375
1489430328657;0.0234375;-1.390625;3.359375;0.189453125;-0.0205078125;-0.97021484375
1489430328796;0.0234375;-1.390625;3.359375;0.189453125;-0.0205078125;-0.97021484375
1489430328936;0.0234375;-1.390625;3.359375;0.189453125;-0.0205078125;-0.97021484375
1489430329076;1.8203125;0.2109375;2.7265625;0.131591796875;-0.038330078125;-0.951171875
1489430329216;1.8203125;0.2109375;2.7265625;0.131591796875;-0.038330078125;-0.951171875
1489430329356;1.8203125;0.2109375;2.7265625;0.131591796875;-0.038330078125;-0.951171875
1489430329496;1.8203125;0.2109375;2.7265625;0.131591796875;-0.038330078125;-0.951171875
1489430329643;1.8203125;0.2109375;2.7265625;0.131591796875;-0.038330078125;-0.951171875
1489430329776;1.8203125;0.2109375;2.7265625;0.131591796875;-0.038330078125;-0.951171875
1489430329916;1.8203125;0.2109375;2.7265625;0.131591796875;-0.038330078125;-0.951171875
1489430330056;1.8203125;0.2109375;2.7265625;0.131591796875;-0.038330078125;-0.951171875
1489430330196;-0.3984375;-1.1640625;2.9921875;0.138671875;-0.09912109375;-1.0244140625
1489430330336;-0.3984375;-1.1640625;2.9921875;0.138671875;-0.09912109375;-1.0244140625
1489430330476;-0.3984375;-1.1640625;2.9921875;0.138671875;-0.09912109375;-1.0244140625
1489430330616;-0.3984375;-1.1640625;2.9921875;0.138671875;-0.09912109375;-1.0244140625
1489430330826;-0.3984375;-1.1640625;2.9921875;0.138671875;-0.09912109375;-1.0244140625
1489430330973;-0.3984375;-1.1640625;2.9921875;0.138671875;-0.09912109375;-1.0244140625
1489430331106;0.25;-0.71875;5.359375;0.12158203125;-0.062255859375;-1.06567382812
1489430331246;0.25;-0.71875;5.359375;0.12158203125;-0.062255859375;-1.06567382812
1489430331386;0.25;-0.71875;5.359375;0.12158203125;-0.062255859375;-1.06567382812
1489430331526;0.25;-0.71875;5.359375;0.12158203125;-0.062255859375;-1.06567382812
1489430331666;0.25;-0.71875;5.359375;0.12158203125;-0.062255859375;-1.06567382812
1489430331813;0.25;-0.71875;5.359375;0.12158203125;-0.062255859375;-1.06567382812
1489430331946;0.25;-0.71875;5.359375;0.12158203125;-0.062255859375;-1.06567382812
1489430332086;-0.3046875;0.1015625;4.453125;0.119873046875;-0.08447265625;-0.972412109375
1489430332226;-0.3046875;0.1015625;4.453125;0.119873046875;-0.08447265625;-0.972412109375
1489430332366;-0.3046875;0.1015625;4.453125;0.119873046875;-0.08447265625;-0.972412109375
1489430332506;-0.3046875;0.1015625;4.453125;0.119873046875;-0.08447265625;-0.972412109375
1489430332646;-0.3046875;0.1015625;4.453125;0.119873046875;-0.08447265625;-0.972412109375
1489430332856;-0.3046875;0.1015625;4.453125;0.119873046875;-0.08447265625;-0.972412109375
1489430332996;-0.3046875;0.1015625;4.453125;0.119873046875;-0.08447265625;-0.972412109375
1489430333143;-0.109375;-1.15625;2.546875;0.101318359375;-0.073974609375;-1.01904296875
1489430333276;-0.109375;-1.15625;2.546875;0.101318359375;-0.073974609375;-1.01904296875
1489430333423;-0.109375;-1.15625;2.546875;0.101318359375;-0.073974609375;-1.01904296875
1489430333556;-0.109375;-1.15625;2.546875;0.101318359375;-0.073974609375;-1.01904296875
1489430333696;-0.109375;-1.15625;2.546875;0.101318359375;-0.073974609375;-1.01904296875
1489430333843;-0.109375;-1.15625;2.546875;0.101318359375;-0.073974609375;-1.01904296875
1489430333976;-0.109375;-1.15625;2.546875;0.101318359375;-0.073974609375;-1.01904296875
1489430334116;1.0703125;-1.8984375;3.265625;0.1689453125;-0.064697265625;-0.987060546875
1489430334256;1.0703125;-1.8984375;3.265625;0.1689453125;-0.064697265625;-0.987060546875
1489430334396;1.0703125;-1.8984375;3.265625;0.1689453125;-0.064697265625;-0.987060546875
1489430334536;1.0703125;-1.8984375;3.265625;0.1689453125;-0.064697265625;-0.987060546875
1489430334683;1.0703125;-1.8984375;3.265625;0.1689453125;-0.064697265625;-0.987060546875
1489430334816;1.0703125;-1.8984375;3.265625;0.1689453125;-0.064697265625;-0.987060546875
1489430334956;1.0703125;-1.8984375;3.265625;0.1689453125;-0.064697265625;-0.987060546875
1489430335103;1.1328125;-0.203125;4.03125;0.142333984375;-0.03076171875;-1.00463867188
1489430335236;1.1328125;-0.203125;4.03125;0.142333984375;-0.03076171875;-1.00463867188
1489430335376;1.1328125;-0.203125;4.03125;0.142333984375;-0.03076171875;-1.00463867188
1489430335516;1.1328125;-0.203125;4.03125;0.142333984375;-0.03076171875;-1.00463867188
1489430335656;1.1328125;-0.203125;4.03125;0.142333984375;-0.03076171875;-1.00463867188
1489430335796;1.1328125;-0.203125;4.03125;0.142333984375;-0.03076171875;-1.00463867188
1489430336006;1.1328125;-0.203125;4.03125;0.142333984375;-0.03076171875;-1.00463867188
1489430336146;-1.9140625;-0.8828125;4.1328125;0.132568359375;-0.08935546875;-1.0400390625
1489430336286;-1.9140625;-0.8828125;4.1328125;0.132568359375;-0.08935546875;-1.0400390625
1489430336426;-1.9140625;-0.8828125;4.1328125;0.132568359375;-0.08935546875;-1.0400390625
1489430336566;-1.9140625;-0.8828125;4.1328125;0.132568359375;-0.08935546875;-1.0400390625
1489430336706;-1.9140625;-0.8828125;4.1328125;0.132568359375;-0.08935546875;-1.0400390625
1489430336846;-1.9140625;-0.8828125;4.1328125;0.132568359375;-0.08935546875;-1.0400390625
1489430336986;-1.9140625;-0.8828125;4.1328125;0.132568359375;-0.08935546875;-1.0400390625
1489430337126;0.1640625;-0.1484375;2.40625;0.114013671875;-0.02197265625;-0.993408203125
1489430337266;0.1640625;-0.1484375;2.40625;0.114013671875;-0.02197265625;-0.993408203125
1489430337406;0.1640625;-0.1484375;2.40625;0.114013671875;-0.02197265625;-0.993408203125
1489430337546;0.1640625;-0.1484375;2.40625;0.114013671875;-0.02197265625;-0.993408203125
1489430337693;0.1640625;-0.1484375;2.40625;0.114013671875;-0.02197265625;-0.993408203125
1489430337826;0.1640625;-0.1484375;2.40625;0.114013671875;-0.02197265625;-0.993408203125
1489430337966;0.1640625;-0.1484375;2.40625;0.114013671875;-0.02197265625;-0.993408203125
1489430338106;-0.078125;0.3984375;4.078125;0.13916015625;-0.0283203125;-1.00170898438
1489430338246;-0.078125;0.3984375;4.078125;0.13916015625;-0.0283203125;-1.00170898438
1489430338386;-0.078125;0.3984375;4.078125;0.13916015625;-0.0283203125;-1.00170898438
1489430338526;-0.078125;0.3984375;4.078125;0.13916015625;-0.0283203125;-1.00170898438
1489430338673;-0.078125;0.3984375;4.078125;0.13916015625;-0.0283203125;-1.00170898438
1489430338806;-0.078125;0.3984375;4.078125;0.13916015625;-0.0283203125;-1.00170898438
1489430338946;-0.078125;0.3984375;4.078125;0.13916015625;-0.0283203125;-1.00170898438
1489430339086;-4.1953125;8.9375;-11.5546875;0.155029296875;0.038818359375;-0.958984375
1489430339226;-4.1953125;8.9375;-11.5546875;0.155029296875;0.038818359375;-0.958984375
1489430339366;-4.1953125;8.9375;-11.5546875;0.155029296875;0.038818359375;-0.958984375
1489430339506;-4.1953125;8.9375;-11.5546875;0.155029296875;0.038818359375;-0.958984375
1489430339646;-4.1953125;8.9375;-11.5546875;0.155029296875;0.038818359375;-0.958984375
1489430339793;-4.1953125;8.9375;-11.5546875;0.155029296875;0.038818359375;-0.958984375
1489430339926;-4.1953125;8.9375;-11.5546875;0.155029296875;0.038818359375;-0.958984375
1489430340066;7.015625;-2.4453125;8.875;0.184326171875;-0.080810546875;-1.06591796875
1489430340206;7.015625;-2.4453125;8.875;0.184326171875;-0.080810546875;-1.06591796875
1489430340346;7.015625;-2.4453125;8.875;0.184326171875;-0.080810546875;-1.06591796875
1489430340486;7.015625;-2.4453125;8.875;0.184326171875;-0.080810546875;-1.06591796875
1489430340633;7.015625;-2.4453125;8.875;0.184326171875;-0.080810546875;-1.06591796875
1489430340766;7.015625;-2.4453125;8.875;0.184326171875;-0.080810546875;-1.06591796875
1489430340906;7.015625;-2.4453125;8.875;0.184326171875;-0.080810546875;-1.06591796875
1489430341046;7.015625;-2.4453125;8.875;0.184326171875;-0.080810546875;-1.06591796875
1489430341186;-37.203125;-17.9296875;12.2890625;0.144287109375;-0.191650390625;-1.08178710938
1489430341326;-37.203125;-17.9296875;12.2890625;0.144287109375;-0.191650390625;-1.08178710938
1489430341466;-37.203125;-17.9296875;12.2890625;0.144287109375;-0.191650390625;-1.08178710938
1489430341606;-37.203125;-17.9296875;12.2890625;0.144287109375;-0.191650390625;-1.08178710938
1489430341746;-37.203125;-17.9296875;12.2890625;0.144287109375;-0.191650390625;-1.08178710938
1489430341893;-37.203125;-17.9296875;12.2890625;0.144287109375;-0.191650390625;-1.08178710938
1489430342026;-37.203125;-17.9296875;12.2890625;0.144287109375;-0.191650390625;-1.08178710938
1489430342166;59.828125;-31.8828125;19.3828125;0.08642578125;-0.138916015625;-0.778076171875
1489430342306;59.828125;-31.8828125;19.3828125;0.08642578125;-0.138916015625;-0.778076171875
1489430342446;59.828125;-31.8828125;19.3828125;0.08642578125;-0.138916015625;-0.778076171875
1489430342586;59.828125;-31.8828125;19.3828125;0.08642578125;-0.138916015625;-0.778076171875
1489430342726;59.828125;-31.8828125;19.3828125;0.08642578125;-0.138916015625;-0.778076171875
1489430342866;59.828125;-31.8828125;19.3828125;0.08642578125;-0.138916015625;-0.778076171875
1489430343006;59.828125;-31.8828125;19.3828125;0.08642578125;-0.138916015625;-0.778076171875
1489430343153;1.453125;0.625;2.2578125;0.17236328125;0.05517578125;-1.0390625
1489430343286;1.453125;0.625;2.2578125;0.17236328125;0.05517578125;-1.0390625
1489430343426;1.453125;0.625;2.2578125;0.17236328125;0.05517578125;-1.0390625
1489430343566;1.453125;0.625;2.2578125;0.17236328125;0.05517578125;-1.0390625
1489430343706;1.453125;0.625;2.2578125;0.17236328125;0.05517578125;-1.0390625
1489430343846;1.453125;0.625;2.2578125;0.17236328125;0.05517578125;-1.0390625
1489430343986;1.453125;0.625;2.2578125;0.17236328125;0.05517578125;-1.0390625
1489430344126;-1.3046875;0.7421875;2.828125;0.175537109375;0.07421875;-0.9560546875
1489430344266;-1.3046875;0.7421875;2.828125;0.175537109375;0.07421875;-0.9560546875
1489430344406;-1.3046875;0.7421875;2.828125;0.175537109375;0.07421875;-0.9560546875
1489430344546;-1.3046875;0.7421875;2.828125;0.175537109375;0.07421875;-0.9560546875
1489430344686;-1.3046875;0.7421875;2.828125;0.175537109375;0.07421875;-0.9560546875
1489430344826;-1.3046875;0.7421875;2.828125;0.175537109375;0.07421875;-0.9560546875
1489430344966;-1.3046875;0.7421875;2.828125;0.175537109375;0.07421875;-0.9560546875
1489430345113;-1.4765625;0.9375;3.4609375;0.156005859375;0.060791015625;-0.9345703125
1489430345246;-1.4765625;0.9375;3.4609375;0.156005859375;0.060791015625;-0.9345703125
1489430345386;-1.4765625;0.9375;3.4609375;0.156005859375;0.060791015625;-0.9345703125
1489430345526;-1.4765625;0.9375;3.4609375;0.156005859375;0.060791015625;-0.9345703125
1489430345673;-1.4765625;0.9375;3.4609375;0.156005859375;0.060791015625;-0.9345703125
1489430345806;-1.4765625;0.9375;3.4609375;0.156005859375;0.060791015625;-0.9345703125
1489430345946;-1.4765625;0.9375;3.4609375;0.156005859375;0.060791015625;-0.9345703125
1489430346086;1.921875;-2.03125;3.25;0.076416015625;0.01953125;-0.993896484375
1489430346226;1.921875;-2.03125;3.25;0.076416015625;0.01953125;-0.993896484375
1489430346366;1.921875;-2.03125;3.25;0.076416015625;0.01953125;-0.993896484375
1489430346513;1.921875;-2.03125;3.25;0.076416015625;0.01953125;-0.993896484375
1489430346646;1.921875;-2.03125;3.25;0.076416015625;0.01953125;-0.993896484375
1489430346786;1.921875;-2.03125;3.25;0.076416015625;0.01953125;-0.993896484375
1489430346926;1.921875;-2.03125;3.25;0.076416015625;0.01953125;-0.993896484375
1489430347066;2.140625;0.5703125;3.2265625;0.21337890625;0.01220703125;-0.987548828125
1489430347206;2.140625;0.5703125;3.2265625;0.21337890625;0.01220703125;-0.987548828125
1489430347353;2.140625;0.5703125;3.2265625;0.21337890625;0.01220703125;-0.987548828125
1489430347486;2.140625;0.5703125;3.2265625;0.21337890625;0.01220703125;-0.987548828125
1489430347626;2.140625;0.5703125;3.2265625;0.21337890625;0.01220703125;-0.987548828125
1489430347766;2.140625;0.5703125;3.2265625;0.21337890625;0.01220703125;-0.987548828125
1489430347906;2.140625;0.5703125;3.2265625;0.21337890625;0.01220703125;-0.987548828125
1489430348046;2.140625;0.5703125;3.2265625;0.21337890625;0.01220703125;-0.987548828125
1489430348186;13.4453125;4.921875;-1.8203125;0.12255859375;0.0849609375;-0.990478515625
1489430348326;13.4453125;4.921875;-1.8203125;0.12255859375;0.0849609375;-0.990478515625
1489430348473;13.4453125;4.921875;-1.8203125;0.12255859375;0.0849609375;-0.990478515625
1489430348606;13.4453125;4.921875;-1.8203125;0.12255859375;0.0849609375;-0.990478515625
1489430348746;13.4453125;4.921875;-1.8203125;0.12255859375;0.0849609375;-0.990478515625
1489430348886;13.4453125;4.921875;-1.8203125;0.12255859375;0.0849609375;-0.990478515625
1489430349026;13.4453125;4.921875;-1.8203125;0.12255859375;0.0849609375;-0.990478515625
1489430349166;0.5;-3.25;4.59375;0.19091796875;-0.053955078125;-0.983154296875
1489430349306;0.5;-3.25;4.59375;0.19091796875;-0.053955078125;-0.983154296875
1489430349446;0.5;-3.25;4.59375;0.19091796875;-0.053955078125;-0.983154296875
1489430349586;0.5;-3.25;4.59375;0.19091796875;-0.053955078125;-0.983154296875
1489430349726;0.5;-3.25;4.59375;0.19091796875;-0.053955078125;-0.983154296875
1489430349866;0.5;-3.25;4.59375;0.19091796875;-0.053955078125;-0.983154296875
1489430350006;0.5;-3.25;4.59375;0.19091796875;-0.053955078125;-0.983154296875
1489430350146;2.6953125;-1.0;3.765625;0.150390625;-0.00732421875;-0.95458984375
1489430350293;2.6953125;-1.0;3.765625;0.150390625;-0.00732421875;-0.95458984375
1489430350426;2.6953125;-1.0;3.765625;0.150390625;-0.00732421875;-0.95458984375
1489430350573;2.6953125;-1.0;3.765625;0.150390625;-0.00732421875;-0.95458984375
1489430350706;2.6953125;-1.0;3.765625;0.150390625;-0.00732421875;-0.95458984375
1489430350846;2.6953125;-1.0;3.765625;0.150390625;-0.00732421875;-0.95458984375
1489430350986;2.6953125;-1.0;3.765625;0.150390625;-0.00732421875;-0.95458984375
1489430351126;2.015625;-0.75;2.25;0.193115234375;-0.009521484375;-1.00170898438
1489430351266;2.015625;-0.75;2.25;0.193115234375;-0.009521484375;-1.00170898438
1489430351406;2.015625;-0.75;2.25;0.193115234375;-0.009521484375;-1.00170898438
1489430351546;2.015625;-0.75;2.25;0.193115234375;-0.009521484375;-1.00170898438
1489430351686;2.015625;-0.75;2.25;0.193115234375;-0.009521484375;-1.00170898438
1489430351826;2.015625;-0.75;2.25;0.193115234375;-0.009521484375;-1.00170898438
1489430351966;2.015625;-0.75;2.25;0.193115234375;-0.009521484375;-1.00170898438
1489430352106;-0.6953125;-0.25;2.2734375;0.22509765625;0.05615234375;-0.99462890625
1489430352253;-0.6953125;-0.25;2.2734375;0.22509765625;0.05615234375;-0.99462890625
1489430352386;-0.6953125;-0.25;2.2734375;0.22509765625;0.05615234375;-0.99462890625
1489430352526;-0.6953125;-0.25;2.2734375;0.22509765625;0.05615234375;-0.99462890625
1489430352666;-0.6953125;-0.25;2.2734375;0.22509765625;0.05615234375;-0.99462890625
1489430352806;-0.6953125;-0.25;2.2734375;0.22509765625;0.05615234375;-0.99462890625
1489430352946;-0.6953125;-0.25;2.2734375;0.22509765625;0.05615234375;-0.99462890625
1489430353086;-13.4765625;-3.4296875;5.9140625;0.1806640625;0.007568359375;-1.05712890625
1489430353226;-13.4765625;-3.4296875;5.9140625;0.1806640625;0.007568359375;-1.05712890625
1489430353366;-13.4765625;-3.4296875;5.9140625;0.1806640625;0.007568359375;-1.05712890625
1489430353506;-13.4765625;-3.4296875;5.9140625;0.1806640625;0.007568359375;-1.05712890625
1489430353646;-13.4765625;-3.4296875;5.9140625;0.1806640625;0.007568359375;-1.05712890625
1489430353793;-13.4765625;-3.4296875;5.9140625;0.1806640625;0.007568359375;-1.05712890625
1489430353926;-13.4765625;-3.4296875;5.9140625;0.1806640625;0.007568359375;-1.05712890625
1489430354066;14.125;-2.7109375;7.1640625;0.155029296875;0.05908203125;-1.052734375
1489430354206;14.125;-2.7109375;7.1640625;0.155029296875;0.05908203125;-1.052734375
1489430354346;14.125;-2.7109375;7.1640625;0.155029296875;0.05908203125;-1.052734375
1489430354486;14.125;-2.7109375;7.1640625;0.155029296875;0.05908203125;-1.052734375
1489430354626;14.125;-2.7109375;7.1640625;0.155029296875;0.05908203125;-1.052734375
1489430354766;14.125;-2.7109375;7.1640625;0.155029296875;0.05908203125;-1.052734375
1489430354913;14.125;-2.7109375;7.1640625;0.155029296875;0.05908203125;-1.052734375
1489430355046;14.125;-2.7109375;7.1640625;0.155029296875;0.05908203125;-1.052734375
1489430355186;9.3828125;-1.2734375;2.1171875;0.2685546875;0.100830078125;-1.00756835938
1489430355326;9.3828125;-1.2734375;2.1171875;0.2685546875;0.100830078125;-1.00756835938
1489430355466;9.3828125;-1.2734375;2.1171875;0.2685546875;0.100830078125;-1.00756835938
1489430355606;9.3828125;-1.2734375;2.1171875;0.2685546875;0.100830078125;-1.00756835938
