timestamp;gyro-alpha;gyro-beta;gyro-gamma;accel-x;accel-y;accel-z
1489428975720;-74.4921875;10.421875;-37.1875;1.05346679688;0.2861328125;0.723388671875
1489428975929;-74.4921875;10.421875;-37.1875;1.05346679688;0.2861328125;0.723388671875
1489428976069;-26.6953125;-25.2421875;-14.34375;0.5029296875;0.596435546875;0.501708984375
1489428976209;-26.6953125;-25.2421875;-14.34375;0.5029296875;0.596435546875;0.501708984375
1489428976349;-26.6953125;-25.2421875;-14.34375;0.5029296875;0.596435546875;0.501708984375
1489428976496;-26.6953125;-25.2421875;-14.34375;0.5029296875;0.596435546875;0.501708984375
1489428976769;-26.6953125;-25.2421875;-14.34375;0.5029296875;0.596435546875;0.501708984375
1489428976909;-51.65625;-21.2578125;52.4375;0.474853515625;0.3603515625;0.55126953125
1489428977050;-51.65625;-21.2578125;52.4375;0.474853515625;0.3603515625;0.55126953125
1489428977336;-51.65625;-21.2578125;52.4375;0.474853515625;0.3603515625;0.55126953125
1489428977469;-51.65625;-21.2578125;52.4375;0.474853515625;0.3603515625;0.55126953125
1489428977686;-51.65625;-21.2578125;52.4375;0.474853515625;0.3603515625;0.55126953125
1489428977820;-51.65625;-21.2578125;52.4375;0.474853515625;0.3603515625;0.55126953125
1489428977960;43.2734375;-25.6640625;-7.1484375;0.795166015625;0.392822265625;0.93115234375
1489428978169;43.2734375;-25.6640625;-7.1484375;0.795166015625;0.392822265625;0.93115234375
1489428978309;43.2734375;-25.6640625;-7.1484375;0.795166015625;0.392822265625;0.93115234375
1489428978450;43.2734375;-25.6640625;-7.1484375;0.795166015625;0.392822265625;0.93115234375
1489428978589;43.2734375;-25.6640625;-7.1484375;0.795166015625;0.392822265625;0.93115234375
1489428978730;43.2734375;-25.6640625;-7.1484375;0.795166015625;0.392822265625;0.93115234375
1489428978869;33.9140625;-25.3671875;-18.8125;0.337646484375;0.326904296875;0.845947265625
1489428979009;33.9140625;-25.3671875;-18.8125;0.337646484375;0.326904296875;0.845947265625
1489428979149;33.9140625;-25.3671875;-18.8125;0.337646484375;0.326904296875;0.845947265625
1489428979430;33.9140625;-25.3671875;-18.8125;0.337646484375;0.326904296875;0.845947265625
1489428979709;33.9140625;-25.3671875;-18.8125;0.337646484375;0.326904296875;0.845947265625
1489428979849;33.9140625;-25.3671875;-18.8125;0.337646484375;0.326904296875;0.845947265625
1489428979996;-129.625;42.6875;-33.2265625;0.708251953125;0.54345703125;0.433349609375
1489428980199;-129.625;42.6875;-33.2265625;0.708251953125;0.54345703125;0.433349609375
1489428980339;-129.625;42.6875;-33.2265625;0.708251953125;0.54345703125;0.433349609375
1489428980479;-129.625;42.6875;-33.2265625;0.708251953125;0.54345703125;0.433349609375
1489428980759;-129.625;42.6875;-33.2265625;0.708251953125;0.54345703125;0.433349609375
1489428980899;-31.6328125;17.65625;3.328125;1.06030273438;0.42138671875;0.106689453125
1489428981039;-31.6328125;17.65625;3.328125;1.06030273438;0.42138671875;0.106689453125
1489428981179;-31.6328125;17.65625;3.328125;1.06030273438;0.42138671875;0.106689453125
1489428981319;-31.6328125;17.65625;3.328125;1.06030273438;0.42138671875;0.106689453125
1489428981459;-31.6328125;17.65625;3.328125;1.06030273438;0.42138671875;0.106689453125
1489428981599;-31.6328125;17.65625;3.328125;1.06030273438;0.42138671875;0.106689453125
1489428981746;-31.6328125;17.65625;3.328125;1.06030273438;0.42138671875;0.106689453125
1489428981879;42.2734375;-7.125;8.28125;0.5205078125;0.16845703125;0.609130859375
1489428982089;42.2734375;-7.125;8.28125;0.5205078125;0.16845703125;0.609130859375
1489428982299;42.2734375;-7.125;8.28125;0.5205078125;0.16845703125;0.609130859375
1489428982439;42.2734375;-7.125;8.28125;0.5205078125;0.16845703125;0.609130859375
1489428982579;42.2734375;-7.125;8.28125;0.5205078125;0.16845703125;0.609130859375
1489428982719;42.2734375;-7.125;8.28125;0.5205078125;0.16845703125;0.609130859375
1489428982859;42.2734375;-7.125;8.28125;0.5205078125;0.16845703125;0.609130859375
1489428982999;-75.7734375;-22.6015625;-5.734375;0.470458984375;0.504150390625;0.912109375
1489428983139;-75.7734375;-22.6015625;-5.734375;0.470458984375;0.504150390625;0.912109375
1489428983279;-75.7734375;-22.6015625;-5.734375;0.470458984375;0.504150390625;0.912109375
1489428983419;-75.7734375;-22.6015625;-5.734375;0.470458984375;0.504150390625;0.912109375
1489428983559;-75.7734375;-22.6015625;-5.734375;0.470458984375;0.504150390625;0.912109375
1489428983699;-75.7734375;-22.6015625;-5.734375;0.470458984375;0.504150390625;0.912109375
1489428983839;-75.7734375;-22.6015625;-5.734375;0.470458984375;0.504150390625;0.912109375
1489428983979;-56.2265625;-37.09375;-21.0625;0.515869140625;0.044677734375;0.60693359375
1489428984119;-56.2265625;-37.09375;-21.0625;0.515869140625;0.044677734375;0.60693359375
1489428984266;-56.2265625;-37.09375;-21.0625;0.515869140625;0.044677734375;0.60693359375
1489428984399;-56.2265625;-37.09375;-21.0625;0.515869140625;0.044677734375;0.60693359375
1489428984539;-56.2265625;-37.09375;-21.0625;0.515869140625;0.044677734375;0.60693359375
1489428984679;-56.2265625;-37.09375;-21.0625;0.515869140625;0.044677734375;0.60693359375
1489428984819;-56.2265625;-37.09375;-21.0625;0.515869140625;0.044677734375;0.60693359375
1489428984960;7.9296875;-44.2109375;-51.0234375;0.778076171875;0.148193359375;0.44140625
1489428985169;7.9296875;-44.2109375;-51.0234375;0.778076171875;0.148193359375;0.44140625
1489428985309;7.9296875;-44.2109375;-51.0234375;0.778076171875;0.148193359375;0.44140625
1489428985456;7.9296875;-44.2109375;-51.0234375;0.778076171875;0.148193359375;0.44140625
1489428985589;7.9296875;-44.2109375;-51.0234375;0.778076171875;0.148193359375;0.44140625
1489428985729;7.9296875;-44.2109375;-51.0234375;0.778076171875;0.148193359375;0.44140625
1489428985869;-51.3359375;1.375;-64.9140625;0.705322265625;0.17919921875;0.406005859375
1489428986079;-51.3359375;1.375;-64.9140625;0.705322265625;0.17919921875;0.406005859375
1489428986219;-51.3359375;1.375;-64.9140625;0.705322265625;0.17919921875;0.406005859375
1489428986359;-51.3359375;1.375;-64.9140625;0.705322265625;0.17919921875;0.406005859375
1489428986499;-51.3359375;1.375;-64.9140625;0.705322265625;0.17919921875;0.406005859375
1489428986639;-51.3359375;1.375;-64.9140625;0.705322265625;0.17919921875;0.406005859375
1489428986849;-51.3359375;1.375;-64.9140625;0.705322265625;0.17919921875;0.406005859375
1489428986989;-10.3828125;-2.640625;-1.4140625;0.813720703125;0.2724609375;0.568359375
1489428987129;-10.3828125;-2.640625;-1.4140625;0.813720703125;0.2724609375;0.568359375
1489428987269;-10.3828125;-2.640625;-1.4140625;0.813720703125;0.2724609375;0.568359375
1489428987409;-10.3828125;-2.640625;-1.4140625;0.813720703125;0.2724609375;0.568359375
1489428987549;-10.3828125;-2.640625;-1.4140625;0.813720703125;0.2724609375;0.568359375
1489428987689;-10.3828125;-2.640625;-1.4140625;0.813720703125;0.2724609375;0.568359375
1489428987829;-10.3828125;-2.640625;-1.4140625;0.813720703125;0.2724609375;0.568359375
1489428987976;10.6640625;26.0234375;17.96875;0.64404296875;0.724365234375;0.5908203125
1489428988109;10.6640625;26.0234375;17.96875;0.64404296875;0.724365234375;0.5908203125
1489428988249;10.6640625;26.0234375;17.96875;0.64404296875;0.724365234375;0.5908203125
1489428988396;10.6640625;26.0234375;17.96875;0.64404296875;0.724365234375;0.5908203125
1489428988529;10.6640625;26.0234375;17.96875;0.64404296875;0.724365234375;0.5908203125
1489428988669;10.6640625;26.0234375;17.96875;0.64404296875;0.724365234375;0.5908203125
1489428988816;10.6640625;26.0234375;17.96875;0.64404296875;0.724365234375;0.5908203125
1489428988949;43.4609375;71.671875;80.15625;0.50244140625;0.602294921875;0.285400390625
1489428989096;43.4609375;71.671875;80.15625;0.50244140625;0.602294921875;0.285400390625
1489428989229;43.4609375;71.671875;80.15625;0.50244140625;0.602294921875;0.285400390625
1489428989369;43.4609375;71.671875;80.15625;0.50244140625;0.602294921875;0.285400390625
1489428989509;43.4609375;71.671875;80.15625;0.50244140625;0.602294921875;0.285400390625
1489428989649;43.4609375;71.671875;80.15625;0.50244140625;0.602294921875;0.285400390625
1489428989789;43.4609375;71.671875;80.15625;0.50244140625;0.602294921875;0.285400390625
1489428989929;-28.390625;75.359375;26.2265625;1.13354492188;0.05224609375;0.805419921875
1489428990069;-28.390625;75.359375;26.2265625;1.13354492188;0.05224609375;0.805419921875
1489428990209;-28.390625;75.359375;26.2265625;1.13354492188;0.05224609375;0.805419921875
1489428990349;-28.390625;75.359375;26.2265625;1.13354492188;0.05224609375;0.805419921875
1489428990496;-28.390625;75.359375;26.2265625;1.13354492188;0.05224609375;0.805419921875
1489428990629;-28.390625;75.359375;26.2265625;1.13354492188;0.05224609375;0.805419921875
1489428990769;-28.390625;75.359375;26.2265625;1.13354492188;0.05224609375;0.805419921875
1489428990909;82.203125;-54.625;27.984375;0.907958984375;0.31787109375;0.888427734375
1489428991049;82.203125;-54.625;27.984375;0.907958984375;0.31787109375;0.888427734375
1489428991259;82.203125;-54.625;27.984375;0.907958984375;0.31787109375;0.888427734375
1489428991406;82.203125;-54.625;27.984375;0.907958984375;0.31787109375;0.888427734375
1489428991539;82.203125;-54.625;27.984375;0.907958984375;0.31787109375;0.888427734375
1489428991679;82.203125;-54.625;27.984375;0.907958984375;0.31787109375;0.888427734375
1489428991827;82.203125;-54.625;27.984375;0.907958984375;0.31787109375;0.888427734375
1489428991959;-7.2890625;-106.9375;-0.46875;0.9892578125;0.370361328125;0.667724609375
1489428992169;-7.2890625;-106.9375;-0.46875;0.9892578125;0.370361328125;0.667724609375
1489428992309;-7.2890625;-106.9375;-0.46875;0.9892578125;0.370361328125;0.667724609375
1489428992449;-7.2890625;-106.9375;-0.46875;0.9892578125;0.370361328125;0.667724609375
1489428992589;-7.2890625;-106.9375;-0.46875;0.9892578125;0.370361328125;0.667724609375
1489428992729;-7.2890625;-106.9375;-0.46875;0.9892578125;0.370361328125;0.667724609375
1489428993009;-12.6640625;-29.2421875;-36.2578125;0.68701171875;0.418701171875;0.5283203125
1489428993149;-12.6640625;-29.2421875;-36.2578125;0.68701171875;0.418701171875;0.5283203125
1489428993289;-12.6640625;-29.2421875;-36.2578125;0.68701171875;0.418701171875;0.5283203125
1489428993429;-12.6640625;-29.2421875;-36.2578125;0.68701171875;0.418701171875;0.5283203125
1489428993709;-12.6640625;-29.2421875;-36.2578125;0.68701171875;0.418701171875;0.5283203125
1489428993849;-12.6640625;-29.2421875;-36.2578125;0.68701171875;0.418701171875;0.5283203125
1489428993996;25.1171875;104.5703125;120.2734375;0.682861328125;0.342529296875;0.11181640625
1489428994129;25.1171875;104.5703125;120.2734375;0.682861328125;0.342529296875;0.11181640625
1489428994269;25.1171875;104.5703125;120.2734375;0.682861328125;0.342529296875;0.11181640625
1489428994409;25.1171875;104.5703125;120.2734375;0.682861328125;0.342529296875;0.11181640625
1489428994549;25.1171875;104.5703125;120.2734375;0.682861328125;0.342529296875;0.11181640625
1489428994689;25.1171875;104.5703125;120.2734375;0.682861328125;0.342529296875;0.11181640625
1489428994829;25.1171875;104.5703125;120.2734375;0.682861328125;0.342529296875;0.11181640625
1489428994969;26.546875;118.3671875;103.6640625;0.81298828125;-0.017822265625;0.275634765625
1489428995116;26.546875;118.3671875;103.6640625;0.81298828125;-0.017822265625;0.275634765625
1489428995249;26.546875;118.3671875;103.6640625;0.81298828125;-0.017822265625;0.275634765625
1489428995389;26.546875;118.3671875;103.6640625;0.81298828125;-0.017822265625;0.275634765625
1489428995529;26.546875;118.3671875;103.6640625;0.81298828125;-0.017822265625;0.275634765625
1489428995669;26.546875;118.3671875;103.6640625;0.81298828125;-0.017822265625;0.275634765625
1489428995809;26.546875;118.3671875;103.6640625;0.81298828125;-0.017822265625;0.275634765625
1489428995949;-4.6015625;37.9609375;-2.78125;1.09106445312;0.07080078125;0.33837890625
1489428996089;-4.6015625;37.9609375;-2.78125;1.09106445312;0.07080078125;0.33837890625
1489428996229;-4.6015625;37.9609375;-2.78125;1.09106445312;0.07080078125;0.33837890625
1489428996446;-4.6015625;37.9609375;-2.78125;1.09106445312;0.07080078125;0.33837890625
1489428996579;-4.6015625;37.9609375;-2.78125;1.09106445312;0.07080078125;0.33837890625
1489428996719;-4.6015625;37.9609375;-2.78125;1.09106445312;0.07080078125;0.33837890625
1489428996866;-4.6015625;37.9609375;-2.78125;1.09106445312;0.07080078125;0.33837890625
1489428996999;45.4453125;-63.0078125;20.515625;1.48999023438;0.06640625;0.90625
1489428997139;45.4453125;-63.0078125;20.515625;1.48999023438;0.06640625;0.90625
1489428997349;45.4453125;-63.0078125;20.515625;1.48999023438;0.06640625;0.90625
1489428997489;45.4453125;-63.0078125;20.515625;1.48999023438;0.06640625;0.90625
1489428997769;45.4453125;-63.0078125;20.515625;1.48999023438;0.06640625;0.90625
1489428997909;20.5703125;16.59375;-31.6171875;0.925537109375;0.708984375;0.3388671875
1489428998049;20.5703125;16.59375;-31.6171875;0.925537109375;0.708984375;0.3388671875
1489428998189;20.5703125;16.59375;-31.6171875;0.925537109375;0.708984375;0.3388671875
1489428998329;20.5703125;16.59375;-31.6171875;0.925537109375;0.708984375;0.3388671875
1489428998469;20.5703125;16.59375;-31.6171875;0.925537109375;0.708984375;0.3388671875
1489428998609;20.5703125;16.59375;-31.6171875;0.925537109375;0.708984375;0.3388671875
1489428998749;20.5703125;16.59375;-31.6171875;0.925537109375;0.708984375;0.3388671875
1489428998889;1.46875;-76.6640625;-51.5078125;0.8173828125;0.497802734375;0.441162109375
1489428999029;1.46875;-76.6640625;-51.5078125;0.8173828125;0.497802734375;0.441162109375
1489428999169;1.46875;-76.6640625;-51.5078125;0.8173828125;0.497802734375;0.441162109375
1489428999309;1.46875;-76.6640625;-51.5078125;0.8173828125;0.497802734375;0.441162109375
1489428999450;1.46875;-76.6640625;-51.5078125;0.8173828125;0.497802734375;0.441162109375
1489428999590;1.46875;-76.6640625;-51.5078125;0.8173828125;0.497802734375;0.441162109375
1489428999729;1.46875;-76.6640625;-51.5078125;0.8173828125;0.497802734375;0.441162109375
1489428999869;23.7578125;-9.3046875;24.671875;1.02001953125;0.235107421875;0.583984375
1489429000009;23.7578125;-9.3046875;24.671875;1.02001953125;0.235107421875;0.583984375
1489429000149;23.7578125;-9.3046875;24.671875;1.02001953125;0.235107421875;0.583984375
1489429000289;23.7578125;-9.3046875;24.671875;1.02001953125;0.235107421875;0.583984375
1489429000499;23.7578125;-9.3046875;24.671875;1.02001953125;0.235107421875;0.583984375
1489429000639;23.7578125;-9.3046875;24.671875;1.02001953125;0.235107421875;0.583984375
1489429000785;23.7578125;-9.3046875;24.671875;1.02001953125;0.235107421875;0.583984375
1489429000989;-12.0390625;51.1640625;1.9453125;0.916015625;0.25146484375;0.855224609375
1489429001129;-12.0390625;51.1640625;1.9453125;0.916015625;0.25146484375;0.855224609375
1489429001276;-12.0390625;51.1640625;1.9453125;0.916015625;0.25146484375;0.855224609375
1489429001409;-12.0390625;51.1640625;1.9453125;0.916015625;0.25146484375;0.855224609375
1489429001549;-12.0390625;51.1640625;1.9453125;0.916015625;0.25146484375;0.855224609375
1489429001696;-12.0390625;51.1640625;1.9453125;0.916015625;0.25146484375;0.855224609375
1489429001829;-12.0390625;51.1640625;1.9453125;0.916015625;0.25146484375;0.855224609375
1489429001969;6.4921875;-15.59375;-22.0078125;0.796142578125;0.23193359375;0.599609375
1489429002109;6.4921875;-15.59375;-22.0078125;0.796142578125;0.23193359375;0.599609375
1489429002249;6.4921875;-15.59375;-22.0078125;0.796142578125;0.23193359375;0.599609375
1489429002389;6.4921875;-15.59375;-22.0078125;0.796142578125;0.23193359375;0.599609375
1489429002536;6.4921875;-15.59375;-22.0078125;0.796142578125;0.23193359375;0.599609375
1489429002739;6.4921875;-15.59375;-22.0078125;0.796142578125;0.23193359375;0.599609375
1489429002949;-114.6875;39.6171875;0.5859375;0.99267578125;0.44677734375;0.75390625
1489429003089;-114.6875;39.6171875;0.5859375;0.99267578125;0.44677734375;0.75390625
1489429003229;-114.6875;39.6171875;0.5859375;0.99267578125;0.44677734375;0.75390625
1489429003369;-114.6875;39.6171875;0.5859375;0.99267578125;0.44677734375;0.75390625
1489429003515;-114.6875;39.6171875;0.5859375;0.99267578125;0.44677734375;0.75390625
1489429003649;-114.6875;39.6171875;0.5859375;0.99267578125;0.44677734375;0.75390625
1489429003789;-114.6875;39.6171875;0.5859375;0.99267578125;0.44677734375;0.75390625
1489429003936;-46.0390625;95.046875;42.140625;0.5107421875;0.354248046875;1.02099609375
1489429004069;-46.0390625;95.046875;42.140625;0.5107421875;0.354248046875;1.02099609375
1489429004216;-46.0390625;95.046875;42.140625;0.5107421875;0.354248046875;1.02099609375
1489429004349;-46.0390625;95.046875;42.140625;0.5107421875;0.354248046875;1.02099609375
1489429004489;-46.0390625;95.046875;42.140625;0.5107421875;0.354248046875;1.02099609375
1489429004636;-46.0390625;95.046875;42.140625;0.5107421875;0.354248046875;1.02099609375
1489429004769;-46.0390625;95.046875;42.140625;0.5107421875;0.354248046875;1.02099609375
1489429004909;-90.6171875;2.6796875;-29.15625;0.99267578125;0.160400390625;0.85986328125
1489429005049;-90.6171875;2.6796875;-29.15625;0.99267578125;0.160400390625;0.85986328125
1489429005189;-90.6171875;2.6796875;-29.15625;0.99267578125;0.160400390625;0.85986328125
1489429005335;-90.6171875;2.6796875;-29.15625;0.99267578125;0.160400390625;0.85986328125
1489429005469;-90.6171875;2.6796875;-29.15625;0.99267578125;0.160400390625;0.85986328125
1489429005609;-90.6171875;2.6796875;-29.15625;0.99267578125;0.160400390625;0.85986328125
