timestamp;gyro-alpha;gyro-beta;gyro-gamma;accel-x;accel-y;accel-z
1489428945620;-84.7109375;29.484375;20.2734375;0.724609375;0.26513671875;0.648681640625
1489428945760;-84.7109375;29.484375;20.2734375;0.724609375;0.26513671875;0.648681640625
1489428945900;66.046875;21.8125;9.8984375;1.11865234375;0.343017578125;0.81884765625
1489428946040;66.046875;21.8125;9.8984375;1.11865234375;0.343017578125;0.81884765625
1489428946180;66.046875;21.8125;9.8984375;1.11865234375;0.343017578125;0.81884765625
1489428946327;66.046875;21.8125;9.8984375;1.11865234375;0.343017578125;0.81884765625
1489428946460;66.046875;21.8125;9.8984375;1.11865234375;0.343017578125;0.81884765625
1489428946600;66.046875;21.8125;9.8984375;1.11865234375;0.343017578125;0.81884765625
1489428946810;66.046875;21.8125;9.8984375;1.11865234375;0.343017578125;0.81884765625
1489428946950;-17.5703125;-31.9375;-19.1171875;0.773193359375;0.197021484375;0.545654296875
1489428947090;-17.5703125;-31.9375;-19.1171875;0.773193359375;0.197021484375;0.545654296875
1489428947230;-17.5703125;-31.9375;-19.1171875;0.773193359375;0.197021484375;0.545654296875
1489428947370;-17.5703125;-31.9375;-19.1171875;0.773193359375;0.197021484375;0.545654296875
1489428947510;-17.5703125;-31.9375;-19.1171875;0.773193359375;0.197021484375;0.545654296875
1489428947650;-17.5703125;-31.9375;-19.1171875;0.773193359375;0.197021484375;0.545654296875
1489428947790;-17.5703125;-31.9375;-19.1171875;0.773193359375;0.197021484375;0.545654296875
1489428947936;-16.796875;-0.3828125;-44.9296875;0.96044921875;0.443115234375;0.509521484375
1489428948070;-16.796875;-0.3828125;-44.9296875;0.96044921875;0.443115234375;0.509521484375
1489428948210;-16.796875;-0.3828125;-44.9296875;0.96044921875;0.443115234375;0.509521484375
1489428948356;-16.796875;-0.3828125;-44.9296875;0.96044921875;0.443115234375;0.509521484375
1489428948490;-16.796875;-0.3828125;-44.9296875;0.96044921875;0.443115234375;0.509521484375
1489428948630;-16.796875;-0.3828125;-44.9296875;0.96044921875;0.443115234375;0.509521484375
1489428948770;-16.796875;-0.3828125;-44.9296875;0.96044921875;0.443115234375;0.509521484375
1489428948910;14.546875;-95.3046875;-10.90625;0.75146484375;0.37451171875;0.2568359375
1489428949050;14.546875;-95.3046875;-10.90625;0.75146484375;0.37451171875;0.2568359375
1489428949196;14.546875;-95.3046875;-10.90625;0.75146484375;0.37451171875;0.2568359375
1489428949330;14.546875;-95.3046875;-10.90625;0.75146484375;0.37451171875;0.2568359375
1489428949470;14.546875;-95.3046875;-10.90625;0.75146484375;0.37451171875;0.2568359375
1489428949610;14.546875;-95.3046875;-10.90625;0.75146484375;0.37451171875;0.2568359375
1489428949750;14.546875;-95.3046875;-10.90625;0.75146484375;0.37451171875;0.2568359375
1489428949890;20.7578125;8.21875;-1.328125;0.627685546875;0.191162109375;0.80517578125
1489428950030;20.7578125;8.21875;-1.328125;0.627685546875;0.191162109375;0.80517578125
1489428950176;20.7578125;8.21875;-1.328125;0.627685546875;0.191162109375;0.80517578125
1489428950310;20.7578125;8.21875;-1.328125;0.627685546875;0.191162109375;0.80517578125
1489428950450;20.7578125;8.21875;-1.328125;0.627685546875;0.191162109375;0.80517578125
1489428950590;20.7578125;8.21875;-1.328125;0.627685546875;0.191162109375;0.80517578125
1489428950730;20.7578125;8.21875;-1.328125;0.627685546875;0.191162109375;0.80517578125
1489428950870;-2.7109375;-48.4296875;22.03125;0.6474609375;0.426513671875;0.375732421875
1489428951080;-2.7109375;-48.4296875;22.03125;0.6474609375;0.426513671875;0.375732421875
1489428951220;-2.7109375;-48.4296875;22.03125;0.6474609375;0.426513671875;0.375732421875
1489428951360;-2.7109375;-48.4296875;22.03125;0.6474609375;0.426513671875;0.375732421875
1489428951500;-2.7109375;-48.4296875;22.03125;0.6474609375;0.426513671875;0.375732421875
1489428951640;-2.7109375;-48.4296875;22.03125;0.6474609375;0.426513671875;0.375732421875
1489428951786;-2.7109375;-48.4296875;22.03125;0.6474609375;0.426513671875;0.375732421875
1489428951920;19.578125;10.84375;7.8984375;0.656982421875;0.2998046875;0.94775390625
1489428952060;19.578125;10.84375;7.8984375;0.656982421875;0.2998046875;0.94775390625
1489428952200;19.578125;10.84375;7.8984375;0.656982421875;0.2998046875;0.94775390625
1489428952340;19.578125;10.84375;7.8984375;0.656982421875;0.2998046875;0.94775390625
1489428952480;19.578125;10.84375;7.8984375;0.656982421875;0.2998046875;0.94775390625
1489428952620;19.578125;10.84375;7.8984375;0.656982421875;0.2998046875;0.94775390625
1489428952760;19.578125;10.84375;7.8984375;0.656982421875;0.2998046875;0.94775390625
1489428952900;12.03125;48.796875;46.890625;0.5712890625;0.3662109375;0.41064453125
1489428953046;12.03125;48.796875;46.890625;0.5712890625;0.3662109375;0.41064453125
1489428953180;12.03125;48.796875;46.890625;0.5712890625;0.3662109375;0.41064453125
1489428953320;12.03125;48.796875;46.890625;0.5712890625;0.3662109375;0.41064453125
1489428953460;12.03125;48.796875;46.890625;0.5712890625;0.3662109375;0.41064453125
1489428953600;12.03125;48.796875;46.890625;0.5712890625;0.3662109375;0.41064453125
1489428953740;12.03125;48.796875;46.890625;0.5712890625;0.3662109375;0.41064453125
1489428953880;9.234375;70.171875;4.8828125;0.9658203125;0.27197265625;0.803955078125
1489428954020;9.234375;70.171875;4.8828125;0.9658203125;0.27197265625;0.803955078125
1489428954166;9.234375;70.171875;4.8828125;0.9658203125;0.27197265625;0.803955078125
1489428954300;9.234375;70.171875;4.8828125;0.9658203125;0.27197265625;0.803955078125
1489428954440;9.234375;70.171875;4.8828125;0.9658203125;0.27197265625;0.803955078125
1489428954580;9.234375;70.171875;4.8828125;0.9658203125;0.27197265625;0.803955078125
1489428954726;9.234375;70.171875;4.8828125;0.9658203125;0.27197265625;0.803955078125
1489428954860;9.234375;70.171875;4.8828125;0.9658203125;0.27197265625;0.803955078125
1489428955000;0.6484375;-25.0;-23.453125;0.4267578125;0.29541015625;0.689697265625
1489428955140;0.6484375;-25.0;-23.453125;0.4267578125;0.29541015625;0.689697265625
1489428955280;0.6484375;-25.0;-23.453125;0.4267578125;0.29541015625;0.689697265625
1489428955420;0.6484375;-25.0;-23.453125;0.4267578125;0.29541015625;0.689697265625
1489428955560;0.6484375;-25.0;-23.453125;0.4267578125;0.29541015625;0.689697265625
1489428955700;0.6484375;-25.0;-23.453125;0.4267578125;0.29541015625;0.689697265625
1489428955846;0.6484375;-25.0;-23.453125;0.4267578125;0.29541015625;0.689697265625
1489428955980;-11.2578125;3.0;32.4296875;0.52490234375;0.28076171875;0.607421875
1489428956120;-11.2578125;3.0;32.4296875;0.52490234375;0.28076171875;0.607421875
1489428956260;-11.2578125;3.0;32.4296875;0.52490234375;0.28076171875;0.607421875
1489428956400;-11.2578125;3.0;32.4296875;0.52490234375;0.28076171875;0.607421875
1489428956540;-11.2578125;3.0;32.4296875;0.52490234375;0.28076171875;0.607421875
1489428956680;-11.2578125;3.0;32.4296875;0.52490234375;0.28076171875;0.607421875
1489428956820;-11.2578125;3.0;32.4296875;0.52490234375;0.28076171875;0.607421875
1489428956960;13.453125;57.9140625;62.078125;1.197265625;-0.068603515625;0.693359375
1489428957170;13.453125;57.9140625;62.078125;1.197265625;-0.068603515625;0.693359375
1489428957310;13.453125;57.9140625;62.078125;1.197265625;-0.068603515625;0.693359375
1489428957450;13.453125;57.9140625;62.078125;1.197265625;-0.068603515625;0.693359375
1489428957596;13.453125;57.9140625;62.078125;1.197265625;-0.068603515625;0.693359375
1489428957800;13.453125;57.9140625;62.078125;1.197265625;-0.068603515625;0.693359375
1489428957940;154.734375;-48.7421875;-14.8515625;1.03662109375;0.097412109375;0.36083984375
1489428958086;154.734375;-48.7421875;-14.8515625;1.03662109375;0.097412109375;0.36083984375
1489428958220;154.734375;-48.7421875;-14.8515625;1.03662109375;0.097412109375;0.36083984375
1489428958360;154.734375;-48.7421875;-14.8515625;1.03662109375;0.097412109375;0.36083984375
1489428958500;154.734375;-48.7421875;-14.8515625;1.03662109375;0.097412109375;0.36083984375
1489428958640;154.734375;-48.7421875;-14.8515625;1.03662109375;0.097412109375;0.36083984375
1489428958850;154.734375;-48.7421875;-14.8515625;1.03662109375;0.097412109375;0.36083984375
1489428958990;-16.2109375;-18.390625;18.859375;0.74853515625;0.282958984375;0.733154296875
1489428959130;-16.2109375;-18.390625;18.859375;0.74853515625;0.282958984375;0.733154296875
1489428959340;-16.2109375;-18.390625;18.859375;0.74853515625;0.282958984375;0.733154296875
1489428959480;-16.2109375;-18.390625;18.859375;0.74853515625;0.282958984375;0.733154296875
1489428959690;-16.2109375;-18.390625;18.859375;0.74853515625;0.282958984375;0.733154296875
1489428959830;-16.2109375;-18.390625;18.859375;0.74853515625;0.282958984375;0.733154296875
1489428960040;-125.6640625;72.0546875;-3.0546875;1.03100585938;0.349609375;0.73388671875
1489428960187;-125.6640625;72.0546875;-3.0546875;1.03100585938;0.349609375;0.73388671875
1489428960320;-125.6640625;72.0546875;-3.0546875;1.03100585938;0.349609375;0.73388671875
1489428960460;-125.6640625;72.0546875;-3.0546875;1.03100585938;0.349609375;0.73388671875
1489428960670;-125.6640625;72.0546875;-3.0546875;1.03100585938;0.349609375;0.73388671875
1489428960810;-125.6640625;72.0546875;-3.0546875;1.03100585938;0.349609375;0.73388671875
1489428960956;61.78125;31.34375;11.2265625;1.13061523438;0.337890625;0.93017578125
1489428961090;61.78125;31.34375;11.2265625;1.13061523438;0.337890625;0.93017578125
1489428961230;61.78125;31.34375;11.2265625;1.13061523438;0.337890625;0.93017578125
1489428961376;61.78125;31.34375;11.2265625;1.13061523438;0.337890625;0.93017578125
1489428961510;61.78125;31.34375;11.2265625;1.13061523438;0.337890625;0.93017578125
1489428961720;61.78125;31.34375;11.2265625;1.13061523438;0.337890625;0.93017578125
1489428961860;61.78125;31.34375;11.2265625;1.13061523438;0.337890625;0.93017578125
1489428962000;32.0625;-14.171875;-16.2578125;0.538818359375;0.318359375;0.433837890625
1489428962210;32.0625;-14.171875;-16.2578125;0.538818359375;0.318359375;0.433837890625
1489428962350;32.0625;-14.171875;-16.2578125;0.538818359375;0.318359375;0.433837890625
1489428962490;32.0625;-14.171875;-16.2578125;0.538818359375;0.318359375;0.433837890625
1489428962630;32.0625;-14.171875;-16.2578125;0.538818359375;0.318359375;0.433837890625
1489428962770;32.0625;-14.171875;-16.2578125;0.538818359375;0.318359375;0.433837890625
1489428962910;39.640625;29.53125;61.2421875;0.687744140625;0.00146484375;0.5166015625
1489428963050;39.640625;29.53125;61.2421875;0.687744140625;0.00146484375;0.5166015625
1489428963190;39.640625;29.53125;61.2421875;0.687744140625;0.00146484375;0.5166015625
1489428963336;39.640625;29.53125;61.2421875;0.687744140625;0.00146484375;0.5166015625
1489428963470;39.640625;29.53125;61.2421875;0.687744140625;0.00146484375;0.5166015625
1489428963610;39.640625;29.53125;61.2421875;0.687744140625;0.00146484375;0.5166015625
1489428963757;39.640625;29.53125;61.2421875;0.687744140625;0.00146484375;0.5166015625
1489428963890;-55.5625;38.96875;80.8125;0.94091796875;0.041015625;0.353515625
1489428964176;-55.5625;38.96875;80.8125;0.94091796875;0.041015625;0.353515625
1489428964310;-55.5625;38.96875;80.8125;0.94091796875;0.041015625;0.353515625
1489428964450;-55.5625;38.96875;80.8125;0.94091796875;0.041015625;0.353515625
1489428964589;-55.5625;38.96875;80.8125;0.94091796875;0.041015625;0.353515625
1489428964729;-55.5625;38.96875;80.8125;0.94091796875;0.041015625;0.353515625
1489428964870;80.328125;-61.9296875;-29.171875;1.08740234375;0.166259765625;0.28466796875
1489428965010;80.328125;-61.9296875;-29.171875;1.08740234375;0.166259765625;0.28466796875
1489428965219;80.328125;-61.9296875;-29.171875;1.08740234375;0.166259765625;0.28466796875
1489428965359;80.328125;-61.9296875;-29.171875;1.08740234375;0.166259765625;0.28466796875
1489428965500;80.328125;-61.9296875;-29.171875;1.08740234375;0.166259765625;0.28466796875
1489428965709;80.328125;-61.9296875;-29.171875;1.08740234375;0.166259765625;0.28466796875
1489428965849;80.328125;-61.9296875;-29.171875;1.08740234375;0.166259765625;0.28466796875
1489428965989;-28.21875;-53.2734375;-62.1328125;0.694091796875;-0.1416015625;0.825927734375
1489428966129;-28.21875;-53.2734375;-62.1328125;0.694091796875;-0.1416015625;0.825927734375
1489428966276;-28.21875;-53.2734375;-62.1328125;0.694091796875;-0.1416015625;0.825927734375
1489428966409;-28.21875;-53.2734375;-62.1328125;0.694091796875;-0.1416015625;0.825927734375
1489428966549;-28.21875;-53.2734375;-62.1328125;0.694091796875;-0.1416015625;0.825927734375
1489428966689;-28.21875;-53.2734375;-62.1328125;0.694091796875;-0.1416015625;0.825927734375
1489428966829;-28.21875;-53.2734375;-62.1328125;0.694091796875;-0.1416015625;0.825927734375
1489428967046;0.65625;-5.609375;-56.0703125;0.7578125;0.04443359375;0.5478515625
1489428967180;0.65625;-5.609375;-56.0703125;0.7578125;0.04443359375;0.5478515625
1489428967319;0.65625;-5.609375;-56.0703125;0.7578125;0.04443359375;0.5478515625
1489428967466;0.65625;-5.609375;-56.0703125;0.7578125;0.04443359375;0.5478515625
1489428967599;0.65625;-5.609375;-56.0703125;0.7578125;0.04443359375;0.5478515625
1489428967739;0.65625;-5.609375;-56.0703125;0.7578125;0.04443359375;0.5478515625
1489428967879;-24.0;-0.3984375;41.609375;0.829833984375;0.871337890625;0.08984375
1489428968089;-24.0;-0.3984375;41.609375;0.829833984375;0.871337890625;0.08984375
1489428968236;-24.0;-0.3984375;41.609375;0.829833984375;0.871337890625;0.08984375
1489428968370;-24.0;-0.3984375;41.609375;0.829833984375;0.871337890625;0.08984375
1489428968509;-24.0;-0.3984375;41.609375;0.829833984375;0.871337890625;0.08984375
1489428968656;-24.0;-0.3984375;41.609375;0.829833984375;0.871337890625;0.08984375
1489428968789;-24.0;-0.3984375;41.609375;0.829833984375;0.871337890625;0.08984375
1489428968929;-93.21875;82.8359375;-1.296875;0.8837890625;0.29736328125;0.477294921875
1489428969069;-93.21875;82.8359375;-1.296875;0.8837890625;0.29736328125;0.477294921875
1489428969209;-93.21875;82.8359375;-1.296875;0.8837890625;0.29736328125;0.477294921875
1489428969419;-93.21875;82.8359375;-1.296875;0.8837890625;0.29736328125;0.477294921875
1489428969559;-93.21875;82.8359375;-1.296875;0.8837890625;0.29736328125;0.477294921875
1489428969699;-93.21875;82.8359375;-1.296875;0.8837890625;0.29736328125;0.477294921875
1489428969839;-93.21875;82.8359375;-1.296875;0.8837890625;0.29736328125;0.477294921875
1489428970049;-193.328125;54.0859375;-14.359375;1.34545898438;0.88671875;0.810302734375
1489428970189;-193.328125;54.0859375;-14.359375;1.34545898438;0.88671875;0.810302734375
1489428970336;-193.328125;54.0859375;-14.359375;1.34545898438;0.88671875;0.810302734375
1489428970469;-193.328125;54.0859375;-14.359375;1.34545898438;0.88671875;0.810302734375
1489428970609;-193.328125;54.0859375;-14.359375;1.34545898438;0.88671875;0.810302734375
1489428970750;-193.328125;54.0859375;-14.359375;1.34545898438;0.88671875;0.810302734375
1489428970890;-122.8984375;43.859375;-80.375;1.42504882812;0.75537109375;1.26538085938
1489428971030;-122.8984375;43.859375;-80.375;1.42504882812;0.75537109375;1.26538085938
1489428971176;-122.8984375;43.859375;-80.375;1.42504882812;0.75537109375;1.26538085938
1489428971310;-122.8984375;43.859375;-80.375;1.42504882812;0.75537109375;1.26538085938
1489428971526;-122.8984375;43.859375;-80.375;1.42504882812;0.75537109375;1.26538085938
1489428971659;-122.8984375;43.859375;-80.375;1.42504882812;0.75537109375;1.26538085938
1489428971806;-122.8984375;43.859375;-80.375;1.42504882812;0.75537109375;1.26538085938
1489428971939;47.234375;20.734375;1.8828125;0.995849609375;0.4130859375;0.746337890625
1489428972079;47.234375;20.734375;1.8828125;0.995849609375;0.4130859375;0.746337890625
1489428972226;47.234375;20.734375;1.8828125;0.995849609375;0.4130859375;0.746337890625
1489428972359;47.234375;20.734375;1.8828125;0.995849609375;0.4130859375;0.746337890625
1489428972499;47.234375;20.734375;1.8828125;0.995849609375;0.4130859375;0.746337890625
1489428972639;47.234375;20.734375;1.8828125;0.995849609375;0.4130859375;0.746337890625
1489428972779;47.234375;20.734375;1.8828125;0.995849609375;0.4130859375;0.746337890625
1489428972919;-31.0546875;-33.3515625;-11.9296875;0.893310546875;0.37744140625;0.53662109375
1489428973059;-31.0546875;-33.3515625;-11.9296875;0.893310546875;0.37744140625;0.53662109375
1489428973199;-31.0546875;-33.3515625;-11.9296875;0.893310546875;0.37744140625;0.53662109375
1489428973346;-31.0546875;-33.3515625;-11.9296875;0.893310546875;0.37744140625;0.53662109375
1489428973479;-31.0546875;-33.3515625;-11.9296875;0.893310546875;0.37744140625;0.53662109375
1489428973619;-31.0546875;-33.3515625;-11.9296875;0.893310546875;0.37744140625;0.53662109375
1489428973759;-31.0546875;-33.3515625;-11.9296875;0.893310546875;0.37744140625;0.53662109375
1489428973899;17.9609375;10.890625;47.1484375;0.45751953125;0.60107421875;0.375
1489428974039;17.9609375;10.890625;47.1484375;0.45751953125;0.60107421875;0.375
1489428974179;17.9609375;10.890625;47.1484375;0.45751953125;0.60107421875;0.375
1489428974326;17.9609375;10.890625;47.1484375;0.45751953125;0.60107421875;0.375
1489428974459;17.9609375;10.890625;47.1484375;0.45751953125;0.60107421875;0.375
1489428974676;17.9609375;10.890625;47.1484375;0.45751953125;0.60107421875;0.375
1489428974809;17.9609375;10.890625;47.1484375;0.45751953125;0.60107421875;0.375
1489428974949;-74.4921875;10.421875;-37.1875;1.05346679688;0.2861328125;0.723388671875
1489428975089;-74.4921875;10.421875;-37.1875;1.05346679688;0.2861328125;0.723388671875
1489428975229;-74.4921875;10.421875;-37.1875;1.05346679688;0.2861328125;0.723388671875
1489428975369;-74.4921875;10.421875;-37.1875;1.05346679688;0.2861328125;0.723388671875
1489428975580;-74.4921875;10.421875;-37.1875;1.05346679688;0.2861328125;0.723388671875
